idx,t,px,py,pz,vx,vy,vz,ax,ay,az,yaw,mode,ledr,ledg,ledb
0,0.0,0.0,0.0,0.0,3.8078763089345495e-12,-6.70961149272514e-12,0.0807048396918224,-4.56945157072146e-11,8.051533791270168e-11,-2.2460580763018685,0,70,255.0,255.0,255.0
1,0.05,1.3708354712164377e-13,-2.415460137381051e-13,0.0012485742289056066,1.7516231021098925e-12,-3.086421286653565e-12,-0.030343773741761688,-3.6555612565771675e-11,6.441227033016134e-11,-2.195886461041495,0,70,255.0,255.0,255.0
2,0.1,1.827780628288583e-13,-3.2206135165080675e-13,-0.0029925676947925254,1.5231505235738141e-13,-2.6838445970900645e-13,-0.1388838064123271,-2.7416709424328756e-11,4.830920274762101e-11,-2.1457148457811215,0,70,255.0,255.0,255.0
3,0.15000000000000002,1.5993080497525105e-13,-2.8180368269445584e-13,-0.012597996732943461,-9.900478403229838e-13,1.744498988108537e-12,-0.24491525831987387,-1.8277806282885834e-11,3.2206135165080664e-11,-2.0955432305207475,0,70,255.0,255.0,255.0
4,0.2,9.138903141442898e-14,-1.6103067582540342e-13,-0.02744228384739627,-1.6754655759312024e-12,2.9522290567990588e-12,-0.3484381294644019,-9.138903141442915e-12,1.6103067582540338e-11,-2.045371615260374,0,70,255.0,255.0,255.0
5,0.25,0.0,0.0,-0.0474,-1.9039381544672747e-12,3.35480574636257e-12,-0.4494524198459112,0.0,0.0,-1.9952000000000023,0,70,255.0,255.0,255.0
6,0.30000000000000004,-9.138903141442927e-14,1.610306758254035e-13,-0.07234571615260377,-1.6754655759312014e-12,2.952229056799061e-12,-0.547958129464402,9.138903141442927e-12,-1.610306758254035e-11,-1.945028384739627,0,70,255.0,255.0,255.0
7,0.35000000000000003,-1.5993080497525113e-13,2.8180368269445594e-13,-0.10215400326705655,-9.900478403229822e-13,1.7444989881085354e-12,-0.643955258319874,1.8277806282885844e-11,-3.220613516508068e-11,-1.894856769479252,0,70,255.0,255.0,255.0
8,0.4,-1.827780628288584e-13,3.2206135165080675e-13,-0.1366994323052075,1.5231505235738262e-13,-2.6838445970900645e-13,-0.7374438064123271,2.7416709424328763e-11,-4.8309202747621015e-11,-1.8446851542188767,0,70,255.0,255.0,255.0
9,0.45,-1.3708354712164375e-13,2.4154601373810503e-13,-0.17585657422890563,1.7516231021098937e-12,-3.0864212866535652e-12,-0.8284237737417617,3.655561256577168e-11,-6.441227033016134e-11,-1.7945135389585016,0,70,255.0,255.0,255.0
10,0.5,0.0,0.0,-0.2195,3.8078763089345495e-12,-6.70961149272514e-12,-0.9168951603081774,4.5694515707214603e-11,-8.051533791270167e-11,-1.7443419236981175,0,70,255.0,255.0,255.0
11,0.55,2.2847257853607323e-13,-4.0257668956350876e-13,-0.26749930961849067,4.950239201614915e-12,-8.722494940542682e-12,-1.0025597084006304,-3.877409121342317e-26,7.754818242684634e-26,-1.6822399999999949,0,70,255.0,255.0,255.0
12,0.6000000000000001,4.569451570721463e-13,-8.051533791270173e-13,-0.31970421923698134,3.807876308934545e-12,-6.709611492725131e-12,-1.085119160308177,-4.569451570721468e-11,8.051533791270182e-11,-1.6201380763018722,0,70,255.0,255.0,255.0
13,0.65,5.711814463401826e-13,-1.006441723908771e-12,-0.3759594740462266,3.8078763089345293e-13,-6.709611492725109e-13,-1.1645735160308175,-9.138903141442922e-11,1.6103067582540338e-10,-1.5580361526037496,0,70,255.0,255.0,255.0
14,0.7000000000000001,4.569451570721455e-13,-8.051533791270157e-13,-0.4361098192369813,-5.33102683250838e-12,9.393456089815217e-12,-1.2409227755685521,-1.3708354712164386e-10,2.4154601373810515e-10,-1.495934228905627,0,70,255.0,255.0,255.0
15,0.75,0.0,0.0,-0.5,-1.3327567081270924e-11,2.348364022453799e-11,-1.3141669389213801,-1.8277806282885836e-10,3.220613516508068e-10,-1.4338323052074937,0,70,255.0,255.0,255.0
16,0.8,-8.225012827298635e-13,1.4492760824286318e-12,-0.5674762453734339,-1.8125491230528456e-11,3.193775070537167e-11,-1.3843950369330769,-9.138903141442767e-12,1.6103067582540106e-11,-1.375291615260372,0,70,255.0,255.0,255.0
17,0.8500000000000001,-1.6678498233133336e-12,2.938809833813614e-12,-0.6383907197850186,-1.4241457395415202e-11,2.5093946982791998e-11,-1.4516961004474174,1.6450025654597283e-10,-2.898552164857266e-10,-1.3167509253132503,0,70,255.0,255.0,255.0
18,0.9,-2.1019477225318714e-12,3.703705543984278e-12,-0.7125970715098863,-1.6754655759311903e-12,2.9522290567990556e-12,-1.516070129464402,3.3813941623338814e-10,-5.958135005539928e-10,-1.2582102353661289,0,70,255.0,255.0,255.0
19,0.9500000000000001,-1.690697081166938e-12,2.97906750276996e-12,-0.7899489488231695,1.9572484227923623e-11,-3.448740307260731e-11,-1.5775171239840302,5.117785759208037e-10,-9.017717846222594e-10,-1.199669545419007,0,70,255.0,255.0,255.0
20,1.0,0.0,0.0,-0.8703,4.9502392016149145e-11,-8.722494940542683e-11,-1.6360370840063025,6.854177356082189e-10,-1.2077300686905251e-09,-1.1411288554718784,0,70,255.0,255.0,255.0
21,1.05,3.061532552383381e-12,-5.394527640151018e-12,-0.9535053088877744,6.755172572049892e-11,-1.19028507880944e-10,-1.691716143867062,3.655561256577107e-11,-6.441227033016022e-11,-1.0860335389585007,0,70,255.0,255.0,255.0
22,1.1,6.21445413618119e-12,-1.0950085956127437e-11,-1.0394257016229451,5.315795327272626e-11,-9.366617643844287e-11,-1.7446404379021527,-6.123065104766768e-10,1.0789055280302047e-09,-1.030938222445123,0,70,255.0,255.0,255.0
23,1.1500000000000001,7.836609443787305e-12,-1.380838045202834e-11,-1.1279234399142288,6.321074672831189e-12,-1.1137955077923479e-11,-1.7948099661115744,-1.2611686335191247e-09,2.2222233263905696e-09,-0.9758429059317453,0,70,255.0,255.0,255.0
24,1.2000000000000002,6.3058431675956e-12,-1.111111663195281e-11,-1.2188607854703417,-7.295891007918631e-11,1.2855615620061425e-10,-1.8422247284953273,-1.9100307565615723e-09,3.3655411247509346e-09,-0.9207475894183675,0,70,255.0,255.0,255.0
25,1.25,0.0,0.0,-1.3121,-1.8468200098332566e-10,3.254161573971693e-10,-1.8868847250534109,-2.558892879604017e-09,4.5088589231112945e-09,-0.8656522729049776,0,70,255.0,255.0,255.0
26,1.3,-1.1423628926803659e-11,2.012883447817544e-11,-1.407508119075469,-2.5208141165146723e-10,4.441762808184043e-10,-1.9290763875986758,-1.3708354712164143e-10,2.4154601373810164e-10,-0.8220142289056177,0,70,255.0,255.0,255.0
27,1.35,-2.3189966721411424e-11,4.086153399069614e-11,-1.5049712737232015,-1.9839035569548984e-10,3.495707587709795e-10,-1.9690861479439727,2.2847257853607343e-09,-4.025766895635091e-09,-0.7783761849062578,0,70,255.0,255.0,255.0
28,1.4000000000000001,-2.924449005261735e-11,5.152981626412909e-11,-1.6043803688332001,-2.3608833115393532e-11,4.1599591254894795e-11,-2.0069140060893016,4.706535117843109e-09,-8.293079805008283e-09,-0.7347381409068978,0,70,255.0,255.0,255.0
29,1.4500000000000002,-2.3532675589215466e-11,4.146539902504129e-11,-1.705626309295466,2.722631560888215e-10,-4.797372217298496e-10,-2.0425599620346624,7.128344450325486e-09,-1.2560392714381477e-08,-0.691100096907538,0,70,255.0,255.0,255.0
30,1.5,0.0,0.0,-1.8086,6.892256119171535e-10,-1.2144396801832503e-09,-2.0760240157800554,9.550153782807854e-09,-1.682770562375465e-08,-0.6474620529081854,0,70,255.0,255.0,255.0
31,1.55,4.263298315483126e-11,-7.512081027255075e-11,-1.9131854148103509,9.4077392088537e-10,-1.6576766153926733e-09,-2.106890305738235,5.117785759207976e-10,-9.017717846222463e-10,-0.5871895454190088,0,70,255.0,255.0,255.0
32,1.6,8.65454127494645e-11,-1.524960500066571e-10,-2.0192388034842494,7.404034695092335e-10,-1.304616858645475e-09,-2.1347429703219563,-8.526596630966259e-09,1.5024162054510158e-08,-0.5269170379298322,0,70,255.0,255.0,255.0
33,1.6500000000000001,1.091413507666821e-10,-1.9231088460448795e-10,-2.126609484752972,8.811425778874312e-11,-1.5526040994165534e-10,-2.1595820095312184,-1.7564971837853317e-08,3.0950095893642566e-08,-0.4666445304406557,0,70,255.0,255.0,255.0
34,1.7000000000000002,8.782485918926632e-11,-1.5475047946821238e-10,-2.2351467773477967,-1.0160937142760996e-09,1.790392730718784e-09,-2.181407423366022,-2.660334704474037e-08,4.687602973277497e-08,-0.4063720229514791,0,70,255.0,255.0,255.0
35,1.75,0.0,0.0,-2.3447,-2.5722204466852885e-09,4.532342563335832e-09,-2.200219211826367,-3.564172225162738e-08,6.280196357190731e-08,-0.34609951546231343,0,70,255.0,255.0,255.0
36,1.8,-1.591083036925214e-10,2.803544066120275e-10,-2.455119821683128,-3.5110142718900126e-09,6.186530180752288e-09,-2.216098389448384,-1.910030756561535e-09,3.3655411247508746e-09,-0.2890675894183658,0,70,255.0,255.0,255.0
37,1.85,-3.229916842764466e-10,5.691226660359322e-10,-2.566262312339802,-2.7632235223414425e-09,4.868896675810921e-09,-2.2291259707682034,3.182166073850431e-08,-5.607088132240556e-08,-0.23203566337441817,0,70,255.0,255.0,255.0
38,1.9000000000000001,-4.073209130141109e-10,7.177137221538228e-10,-2.6779848921549116,-3.2884819803957905e-10,5.794420485117276e-10,-2.239301955785826,6.555335223357015e-08,-1.1550730376956198e-07,-0.17500373733047056,0,70,255.0,255.0,255.0
39,1.9500000000000002,-3.277667611678496e-10,5.775365188478078e-10,-2.790144981313348,3.792111701015579e-09,-6.681833701145286e-09,-2.2466263445012506,9.928504372863601e-08,-1.7494372621671843e-07,-0.11797181128652293,0,70,255.0,255.0,255.0
40,2.0,0.0,0.0,-2.9026,9.599656174824e-09,-1.6914930573160078e-08,-2.251099136914478,1.330167352237017e-07,-2.3438014866387459e-07,-0.06093988524257554,0,70,255.0,255.0,255.0
41,2.0500000000000003,5.938002316152572e-10,-1.0462968161755645e-09,-3.0152072984571383,1.3103283166674682e-08,-2.3088444107616483e-08,-2.252716136468231,7.128344450324815e-09,-1.2560392714380302e-08,-0.003740096907537502,0,70,255.0,255.0,255.0
42,2.1,1.205421324356322e-09,-2.1239946141370717e-09,-3.127823947156544,1.0312490619856536e-08,-1.8170969844598205e-08,-2.251473146605232,-1.1876004632305095e-07,2.0925936323511202e-07,0.05345969142750004,0,70,255.0,255.0,255.0
43,2.15,1.5201423012897615e-09,-2.678544004010802e-09,-3.2403069466273813,1.2272785343696252e-09,-2.1625077841053568e-09,-2.2473701673254807,-2.446484370964267e-07,4.310791191846043e-07,0.11065947976253757,0,70,255.0,255.0,255.0
44,2.2,1.2232421854821323e-09,-2.1553955959230183e-09,-3.3525132973988137,-1.415235308978621e-08,2.4936942073862353e-08,-2.2404071986289775,-3.705368278698036e-07,6.528988751340986e-07,0.16785926809757562,0,70,255.0,255.0,255.0
45,2.25,0.0,0.0,-3.4643,-3.582640425261071e-08,6.312737972930448e-08,-2.230584240515723,-4.964252186431792e-07,8.747186310835911e-07,0.2250590564326167,0,70,255.0,255.0,255.0
46,2.3000000000000003,-2.216092622768506e-09,3.90483285809023e-09,-3.5755237844883228,-4.8902118394808715e-08,8.616724624971365e-08,-2.2178850646786943,-2.6603347044737744e-08,4.687602973277043e-08,0.2829079770485233,0,70,255.0,255.0,255.0
47,2.35,-4.498693613148841e-09,7.926855790512357e-09,-3.686040299034023,-3.84867389570847e-08,6.78149827025819e-08,-2.2022934428108707,4.432185245536995e-07,-7.809665716180429e-07,0.3407568976644293,0,70,255.0,255.0,255.0
48,2.4000000000000004,-5.673248292144936e-09,9.996462293889394e-09,-3.7957049213355636,-4.580265939438485e-09,8.070589087908929e-09,-2.183809374912251,9.130403961521411e-07,-1.6088091729688636e-06,0.39860581828033587,0,70,255.0,255.0,255.0
49,2.45,-4.565201980760679e-09,8.04404586484427e-09,-3.904373029091402,5.281730065812929e-08,-9.306593459430422e-08,-2.162432860982837,1.3828622677505783e-06,-2.4366517743196767e-06,0.4564547388962419,0,70,255.0,255.0,255.0
50,2.5,0.0,0.0,-4.0119,1.3370596083561884e-07,-2.3559458834405785e-07,-2.138163901022627,1.8526841393490153e-06,-3.2644943756704895e-06,0.5143036595121622,0,70,255.0,255.0,255.0
51,2.5500000000000003,8.270570259458767e-09,-1.457303461618535e-08,-4.118141563589575,1.8250519041256016e-07,-3.215805408912381e-07,-2.111023604816986,9.928504372862632e-08,-1.7494372621670175e-07,0.5713081887134702,0,70,255.0,255.0,255.0
52,2.6,1.678935312823904e-08,-2.9583428547912353e-08,-4.222954856707364,1.4363446520848222e-07,-2.530889609657294e-07,-2.08103308215128,-1.654114051891747e-06,2.914606923237058e-06,0.6283127179147777,0,70,255.0,255.0,255.0
53,2.6500000000000004,2.117285086728998e-08,-3.730730517154676e-08,-4.3261973680303685,1.7093785223384474e-08,-3.011984856753064e-08,-2.0481923330255083,-3.407513147512136e-06,6.004157572690847e-06,0.6853172471160858,0,70,255.0,255.0,255.0
54,2.7,1.7037565737560583e-08,-3.002078786345407e-08,-4.427726586235581,-1.9711684954273087e-07,3.473267963033543e-07,-2.0125013574396715,-5.1609122431325095e-06,9.093708222144605e-06,0.7423217763173933,0,70,255.0,255.0,255.0
55,2.75,0.0,0.0,-4.5274,-4.989974390898646e-07,8.792509736469269e-07,-1.9739601553937693,-6.914311338752885e-06,1.2183258871598367e-05,0.7993263055187079,0,70,255.0,255.0,255.0
56,2.8000000000000003,-3.0866188415066566e-08,5.438730560665118e-08,-4.625074761153383,-6.811186432554319e-07,1.2001549173152388e-06,-1.932548516053362,-3.705368278697681e-07,6.528988751340357e-07,0.8571392680975843,0,70,255.0,255.0,255.0
57,2.85,-6.265871889980734e-08,1.1040685840113705e-07,-4.720606674136521,-5.360511218768445e-07,9.44540861160336e-07,-1.888246228584011,6.173237683013289e-06,-1.087746112133019e-05,0.9149522306764604,0,70,255.0,255.0,255.0
58,2.9000000000000004,-7.9018155177015e-08,1.3923275839229768e-07,-4.813851206542968,-6.379487495409957e-08,1.1240880518221335e-07,-1.8410532929857157,1.2717012193896407e-05,-2.2407821117794524e-05,0.9727651932553368,0,70,255.0,255.0,255.0
59,2.95,-6.358506096948167e-08,1.12039105588972e-07,-4.904663825966278,7.356500975127945e-07,-1.2962412506191128e-06,-1.790969709258477,1.926078670477946e-05,-3.393818111425875e-05,1.0305781558342129,0,70,255.0,255.0,255.0
60,3.0,0.0,0.0,-4.9929,1.8622837955238398e-06,-3.28140930624365e-06,-1.7379954774022945,2.5804561215662524e-05,-4.5468541110722974e-05,1.088391118413087,0,70,255.0,255.0,255.0
61,3.0500000000000003,1.1519418340080751e-07,-2.0297618781041936e-07,-5.078415391796898,2.541969382609168e-06,-4.4790391283697175e-06,-1.682142330969561,1.3828622677504512e-06,-2.4366517743194403e-06,1.1457347388962495,0,70,255.0,255.0,255.0
62,3.1,2.3384552247099026e-07,-4.120440050566359e-07,-5.1610664467465535,2.0005700222988957e-06,-3.525074483675614e-06,-1.6234220035126694,-2.3038836680161404e-05,4.059523756208371e-05,1.2030783593794117,0,70,255.0,255.0,255.0
63,3.1500000000000004,2.9489976984077e-07,-5.19623728397644e-07,-5.240709805797763,2.380857145930145e-07,-4.1951537216132275e-07,-1.5618344950316196,-4.746053562807348e-05,8.362712689848726e-05,1.2604219798625742,0,70,255.0,255.0,255.0
64,3.2,2.3730267814036608e-07,-4.181356344924338e-07,-5.317202109899312,-2.7454835405084453e-06,4.837638206173098e-06,-1.497379805526412,-7.188223457598533e-05,0.0001266590162348904,1.3177656003457363,0,70,255.0,255.0,255.0
65,3.25,0.0,0.0,-5.3904,-6.950137743005495e-06,1.2246386251327673e-05,-1.4300579349970466,-9.630393352389721e-05,0.00016969090557129358,1.3751092208288966,0,70,255.0,255.0,255.0
66,3.3000000000000003,-4.299105451881635e-07,7.575174456350263e-07,-5.46015967165903,-9.486758887181239e-06,1.671600159616363e-05,-1.3598421600683896,-5.160912243132025e-06,9.093708222143748e-06,1.433521776317372,0,70,255.0,255.0,255.0
67,3.35,-8.727233709841538e-07,1.5377691618254065e-06,-5.526335538877265,-7.4662289673187355e-06,1.315575707354212e-05,-1.2867057573653093,8.598210903763235e-05,-0.00015150348912700468,1.4919343318058467,0,70,255.0,255.0,255.0
68,3.4000000000000004,-1.1005809241860651e-06,1.939262155198278e-06,-5.588781570265986,-8.885479834179558e-07,1.5656526834630785e-06,-1.2106487268878046,0.00017712513031839752,-0.0003121006864761545,1.550346887294322,0,70,255.0,255.0,255.0
69,3.45,-8.856256515919829e-07,1.5605034323807645e-06,-5.647351734436471,1.0246284064520993e-05,-1.8054311574073284e-05,-1.1316710686358769,0.00026826815159916194,-0.00047269788382530293,1.6087594427827967,0,70,255.0,255.0,255.0
70,3.5,0.0,0.0,-5.7019,2.593826717649814e-05,-4.570413569906704e-05,-1.0497727826095256,0.0003594111728799263,-0.0006332950811744514,1.6671719982712752,0,70,255.0,255.0,255.0
71,3.5500000000000003,1.6044479973518465e-06,-2.8270935947296857e-06,-5.752283521566987,3.540506616611579e-05,-6.238496725628481e-05,-0.9651450287568873,1.926078670477766e-05,-3.3938181114255605e-05,1.717938155834233,0,70,255.0,255.0,255.0
72,3.6,3.257047961465625e-06,-5.739032642244991e-06,-5.798372197744387,2.7864345846976067e-05,-4.909795381049287e-05,-0.8779789670261021,-0.00032088959947036797,0.0005654187189459347,1.7687043133971905,0,70,255.0,255.0,255.0
73,3.6500000000000004,4.107423926903492e-06,-7.23742489239547e-06,-5.840039113138293,3.316106219078814e-06,-5.843095361691015e-06,-0.7882745974171681,-0.0006610399856455166,0.0011647756190061305,1.8194704709601486,0,70,255.0,255.0,255.0
74,3.7,3.3051999282275646e-06,-5.823878095030622e-06,-5.877157352354802,-3.82396527175755e-05,6.737960809012001e-05,-0.6960319199300872,-0.0010011903718206623,0.0017641325190663208,1.870236628523106,0,70,255.0,255.0,255.0
75,3.75,0.0,0.0,-5.9096,-9.680293096298707e-05,0.0001705701565449405,-0.6012509345648582,-0.0013413407579958058,0.002363489419126511,1.9210027860860643,0,70,255.0,255.0,255.0
76,3.8000000000000003,-7.587881444219246e-06,1.5350856933283794e-05,-5.937332642073028,-0.00022813350577728287,0.0005208238674289786,-0.5094817249040624,-0.003911882234575999,0.011646659016234939,1.7497656003457496,0,70,255.0,255.0,255.0
77,3.85,-2.4955468474878374e-05,5.981836140715465e-05,-5.96069087014519,-0.00048799115442058614,0.0013352360581684315,-0.4262743745302831,-0.006482423711156168,0.020929828613343287,1.5785284146054361,0,70,255.0,255.0,255.0
78,3.9000000000000004,-5.85291147834282e-05,0.0001566104374143845,-5.980102777180838,-0.0008763758768929014,0.002613806728763313,-0.3516288834435187,-0.00905296518773636,0.030212998210451713,1.4072912288651214,0,70,255.0,255.0,255.0
79,3.95,-0.00011473517406131853,0.00032893500894774254,-5.995996456144326,-0.0013932876731942217,0.004356535879213601,-0.28554525164377076,-0.011623506664316531,0.03949616780756006,1.236054043124808,0,70,255.0,255.0,255.0
80,4.0,-0.0002,0.0006,-6.0088,-0.00203872654332455,0.006563423509519305,-0.22802347913103835,-0.014194048140896687,0.04877933740466844,1.0648168573844952,0,70,255.0,255.0,255.0
81,4.05,-0.0003200529222204746,0.0009910236658615935,-6.018915510140905,-0.0027708710430569853,0.009115089497540373,-0.17750407162685652,-0.015091731848400828,0.053287302116174703,0.955959442782785,0,70,255.0,255.0,255.0
82,4.1000000000000005,-0.00047783517406195416,0.0015152655870136332,-6.026641121674854,-0.0035478997281646416,0.011892153721136806,-0.13242753485275943,-0.015989415555904985,0.05779526682768105,0.8471020281810729,0,70,255.0,255.0,255.0
83,4.15,-0.0006755909647931935,0.0021839956752348665,-6.032248978138349,-0.004369812598647491,0.014894616180308505,-0.09279386880874868,-0.016887099263409124,0.062303231539187306,0.7382446135793628,0,70,255.0,255.0,255.0
84,4.2,-0.0009155645036829552,0.003008483842304067,-6.036011223067897,-0.005236609654505548,0.018122476875055516,-0.05860307349482342,-0.017784782970913265,0.06681119625069357,0.6293871989776526,0,70,255.0,255.0,255.0
85,4.25,-0.0012,0.004,-6.0382,-0.006148290895738811,0.02157573580537784,-0.029855148910983658,-0.01868246667841738,0.07131916096219987,0.5205297843759427,0,70,255.0,255.0,255.0
86,4.3,-0.001531400429673879,0.005170154479620332,-6.039098917363351,-0.007120382321994759,0.02527481814240948,-0.007237988588507892,-0.020201190371820648,0.07664413251906631,0.3841566285230913,0,70,255.0,255.0,255.0
87,4.3500000000000005,-0.0019133038352773166,0.006531919290538354,-6.0390374431553955,-0.008168409932920888,0.029240149057284514,0.008560513941325553,-0.021719914065223944,0.08196910407593286,0.24778347267023743,0,70,255.0,255.0,255.0
88,4.4,-0.002349507026043807,0.008098606861646184,-6.038356510265762,-0.009292373728517163,0.033471728550002806,0.0175403586785161,-0.02323863775862721,0.0872940756327993,0.11141031681738606,0,70,255.0,255.0,255.0
89,4.45,-0.002843806811206865,0.00988352962183601,-6.037397051584087,-0.010492273708783601,0.037969556620564414,0.019701545623064122,-0.024757361452030478,0.09261904718966574,-0.024962839035465367,0,70,255.0,255.0,255.0
90,4.5,-0.0034,0.0119,-6.0365,-0.011768109873720203,0.04273363326896935,0.015044074774969577,-0.02627608514543371,0.09794401874653208,-0.16133599488831674,0,70,255.0,255.0,255.0
91,4.55,-0.004021545359084001,0.014161158415657054,-6.03598722040569,-0.013099599668963954,0.047753637932821634,0.004712025980882078,-0.02698350666431651,0.10285616780755992,-0.25194595687518473,0,70,255.0,255.0,255.0
92,4.6000000000000005,-0.004710549484828806,0.01667945725083305,-6.036104305703568,-0.014466460540151868,0.0530192500497254,-0.010150520912549107,-0.02769092818319932,0.10776831686858786,-0.3425559188620543,0,70,255.0,255.0,255.0
93,4.65,-0.005468780931031596,0.019467176878180472,-6.0370777807986,-0.015868692487283897,0.05853046961968047,-0.029543565905323456,-0.028398349702082118,0.1126804659296157,-0.43316588084892227,0,70,255.0,255.0,255.0
94,4.7,-0.006298008251489593,0.022536597670351932,-6.039134170595756,-0.01730629551036007,0.06428729664268693,-0.053467108997441185,-0.029105771220964916,0.11759261499064354,-0.5237758428357903,0,70,255.0,255.0,255.0
95,4.75,-0.0072,0.0259,-6.0425,-0.01877926960938038,0.07028973111874477,-0.0819211501889023,-0.029813192739847616,0.1225047640516711,-0.6143858048226586,0,70,255.0,255.0,255.0
96,4.800000000000001,-0.00817601813399012,0.029564411857751476,-6.04731700101389,-0.020257219002149423,0.07622263012630397,-0.10981811533502712,-0.029304782970913226,0.11481119625069339,-0.501492801022319,0,70,255.0,255.0,255.0
97,4.8500000000000005,-0.009225298225407507,0.03351585170612962,-6.053387734030336,-0.021709747906471722,0.08177085074381418,-0.13207043029113455,-0.028796373201978847,0.1071176284497158,-0.38859979722198146,0,70,255.0,255.0,255.0
98,4.9,-0.01034656924982984,0.03773508562563205,-6.060429966539838,-0.023136856322347295,0.08693439297127552,-0.14867809505722515,-0.028287963433044468,0.09942406064873822,-0.27570679342164395,0,70,255.0,255.0,255.0
99,4.95,-0.011538560182834782,0.04220287969675632,-6.068161466032891,-0.024538544249776157,0.09171325680868796,-0.15964110963329886,-0.02777955366411009,0.09173049284776064,-0.16281378962130638,0,70,255.0,255.0,255.0
100,5.0,-0.0128,0.0469,-6.0763,-0.0259148116887583,0.09610744225605153,-0.16495947401935573,-0.027271143895175737,0.08403692504678317,-0.04992078582096937,0,70,255.0,255.0,255.0
101,5.050000000000001,-0.014129582104955594,0.051811594153337324,-6.08462157553875,-0.027263524322438476,0.10037984156196282,-0.16812756464076703,-0.02667736145203043,0.08685904718966606,-0.07680283903548094,0,70,255.0,255.0,255.0
102,5.1000000000000005,-0.01552585761354124,0.05694033592464873,-6.093135158175089,-0.028582547833961358,0.10479334697501817,-0.17263975792290384,-0.026083579008885138,0.0896811693325489,-0.10368489224999203,0,70,255.0,255.0,255.0
103,5.15,-0.016987342069649095,0.062293280619291506,-6.101907953042052,-0.029871882223326977,0.10934795849521768,-0.17849605386576622,-0.025489796565739842,0.09250329147543172,-0.1305669454645031,0,70,255.0,255.0,255.0
104,5.2,-0.018512551017171305,0.06787748354262287,-6.111007165272677,-0.03113152749053533,0.11404367612256132,-0.1856964524693541,-0.02489601412259455,0.09532541361831456,-0.15744899867901418,0,70,255.0,255.0,255.0
105,5.25,-0.0201,0.0737,-6.1205,-0.03236148363558642,0.11888049985704911,-0.19424095373366757,-0.024302231679449282,0.09814753576119772,-0.18433105189352528,0,70,255.0,255.0,255.0
106,5.300000000000001,-0.02174885344618762,0.07976601152889966,-6.130439096831109,-0.03360068370809679,0.1237460036258452,-0.20325562610190123,-0.02526577122096494,0.09647261499064319,-0.17625584283581533,0,70,255.0,255.0,255.0
107,5.3500000000000005,-0.023460871320427627,0.08607320459527579,-6.140818833269309,-0.03488806075768292,0.12852776135611346,-0.2118665380172492,-0.026229310762480584,0.09479769422008869,-0.16818063377810555,0,70,255.0,255.0,255.0
108,5.4,-0.025238462471573832,0.09261739189720215,-6.151619021291953,-0.03622361478434485,0.13322577304785405,-0.2200736894797117,-0.027192850303996225,0.09312277344953418,-0.16010542472039577,0,70,255.0,255.0,255.0
109,5.45,-0.027084035748480024,0.09939438613275235,-6.162819472876398,-0.037607345788082544,0.13784003870106687,-0.2278770804892887,-0.02815638984551187,0.09144785267897967,-0.15203021566268596,0,70,255.0,255.0,255.0
110,5.5,-0.029,0.1064,-6.1744,-0.03903925376889602,0.142370558315752,-0.23527671104598022,-0.0291199293870274,0.08977293190842484,-0.1439550066049764,0,70,255.0,255.0,255.0
111,5.550000000000001,-0.030987804110294066,0.11363075973106461,-6.186344437136813,-0.040461740845174475,0.14686014393465668,-0.2425139309516367,-0.02777955366411008,0.08981049284776073,-0.14553378962127936,0,70,255.0,255.0,255.0
112,5.6000000000000005,-0.03304505710474837,0.12108604569424851,-6.1986527087476775,-0.041817209135307044,0.1513516076005281,-0.24983009000810824,-0.02643917794119279,0.08984805378709662,-0.1471125726375823,0,70,255.0,255.0,255.0
113,5.65,-0.03516840804405566,0.12876595179190017,-6.211328761790137,-0.04310565863929375,0.15584494931336632,-0.2572251882153949,-0.0250988022182755,0.0898856147264325,-0.14869135565388525,0,70,255.0,255.0,255.0
114,5.7,-0.03735450598890863,0.13667057192636786,-6.22437654322173,-0.044327089357134586,0.16034016907317133,-0.2646992255734967,-0.023758426495358205,0.08992317566576839,-0.15027013867018818,0,70,255.0,255.0,255.0
115,5.75,-0.0396,0.1448,-6.2378,-0.04548150128882956,0.16483726687994316,-0.2722522020824137,-0.02241805077244058,0.08996073660510451,-0.15184892168649133,0,70,255.0,255.0,255.0
116,5.800000000000001,-0.0419023301126363,0.15315414954684248,-6.251601554621643,-0.046616352911205444,0.1693254206355287,-0.27979265009155146,-0.022976014122594354,0.08956541361831433,-0.14976899867901483,0,70,255.0,255.0,255.0
117,5.8500000000000005,-0.044262100260579036,0.16173221262773066,-6.265777531739983,-0.04777910270108901,0.17379380824177465,-0.28722910195031526,-0.02353397747274812,0.08917009063152416,-0.14768907567153836,0,70,255.0,255.0,255.0
118,5.9,-0.04668070535220364,0.17053320093519758,-6.280322731547501,-0.04896975065848025,0.17824242969868107,-0.29456155765870523,-0.024091940822901885,0.08877476764473399,-0.14560915266406188,0,70,255.0,255.0,255.0
119,5.95,-0.049159540295885505,0.17955612616177638,-6.295231954236679,-0.05018829678337919,0.18267128500624802,-0.3017900172167214,-0.02464990417305565,0.08837944465794383,-0.1435292296565854,0,70,255.0,255.0,255.0
120,6.0,-0.0517,0.1888,-6.3105,-0.05143474107578581,0.18708037416447545,-0.3089144806243638,-0.025207867523209637,0.08798412167115433,-0.14144930664910937,0,70,255.0,255.0,255.0
121,6.050000000000001,-0.054302875439160965,0.1982638420815661,-6.326122944376619,-0.05267284751000386,0.19147017352322887,-0.3160114686821589,-0.024316389845511852,0.08760785267897986,-0.14243021566269115,0,70,255.0,255.0,255.0
122,6.1000000000000005,-0.05696654185293567,0.2079467037948295,-6.342101964292394,-0.05386638006033701,0.1958411594323735,-0.32315750219063294,-0.023424912167814085,0.08723158368680539,-0.14341112467627293,0,70,255.0,255.0,255.0
123,6.15,-0.059688770547129906,0.21784764446730992,-6.35843951201986,-0.05501533872678527,0.20019333189190938,-0.3303525811497861,-0.022533434490116317,0.08685531469463093,-0.14439203368985468,0,70,255.0,255.0,255.0
124,6.2,-0.06246733282754942,0.2279657234265269,-6.375138039831551,-0.05611972350934863,0.20452669090183653,-0.3375967055596184,-0.021641956812418546,0.08647904570245646,-0.14537294270343645,0,70,255.0,255.0,255.0
125,6.25,-0.0653,0.2383,-6.3922,-0.0571795344080271,0.20884123646215502,-0.34488987542012967,-0.020750479134720057,0.08610277671028266,-0.14635385171701687,0,70,255.0,255.0,255.0
126,6.300000000000001,-0.06818536813072006,0.24884968212689387,-6.409626667871883,-0.058244257048779065,0.21314588527155637,-0.35216147517980984,-0.021838426495357936,0.08608317566576904,-0.1445101386701844,0,70,255.0,255.0,255.0
127,6.3500000000000005,-0.07112533232767847,0.259614572192952,-6.427414611090442,-0.05936337705756291,0.21744955402873198,-0.3593408892871482,-0.022926373855995795,0.08606357462125543,-0.1426664256233519,0,70,255.0,255.0,255.0
128,6.4,-0.07412261245927686,0.2705946211955632,-6.445559220373059,-0.06053689443437864,0.22175224273368188,-0.3664281177421449,-0.024014321216633657,0.0860439735767418,-0.14082271257651946,0,70,255.0,255.0,255.0
129,6.45,-0.07717992839391682,0.28178978013211636,-6.464055886437118,-0.06176480917922626,0.22605395138640613,-0.37342316054480007,-0.02510226857727152,0.0860243725322282,-0.138978999529687,0,70,255.0,255.0,255.0
130,6.5,-0.0803,0.2932,-6.4829,-0.06304712129210578,0.23035467998690468,-0.3803260176951136,-0.026190215937909378,0.08600477148771457,-0.1371352864828519,0,70,255.0,255.0,255.0
131,6.550000000000001,-0.08348445203795901,0.30482462941085936,-6.502087184135848,-0.06431812429487994,0.2346182853905462,-0.38715063059860005,-0.024649904173055993,0.0845394446579429,-0.13584922965660293,0,70,255.0,255.0,255.0
132,6.6000000000000005,-0.08673052883635066,0.3166606074333633,-6.521613991345838,-0.06551211170941139,0.238808624452699,-0.393910940660774,-0.023109592408202633,0.08307411782817126,-0.13456317283035402,0,70,255.0,255.0,255.0
133,6.65,-0.09003437961576277,0.3287042707504377,-6.541477206487904,-0.06662908353570018,0.24292569717336326,-0.4006069478816354,-0.021569280643349276,0.0816087909983996,-0.13327711600410508,0,70,255.0,255.0,255.0
134,6.7,-0.09339215359678327,0.3409519560450081,-6.5616736144199805,-0.06766903977374632,0.24696950355253894,-0.40723865226118444,-0.020028968878495916,0.08014346416862796,-0.13199105917785614,0,70,255.0,255.0,255.0
135,6.75,-0.0968,0.3534,-6.5822,-0.06863198042354977,0.25094004359022604,-0.4138060537994209,-0.018488657113642337,0.07867813733885676,-0.13070500235160676,0,70,255.0,255.0,255.0
136,6.800000000000001,-0.10025522371744408,0.36604540022966986,-6.603053395584723,-0.06958724577170129,0.25487697316625896,-0.4203240024257967,-0.01972195681241797,0.07879904570245842,-0.1300129427034209,0,70,255.0,255.0,255.0
137,6.8500000000000005,-0.10375975232691914,0.37888779807359574,-6.624231823526206,-0.07060417610479158,0.25881994816047194,-0.4268073480697631,-0.02095525651119358,0.07891995406606007,-0.12932088305523504,0,70,255.0,255.0,255.0
138,6.9,-0.1073166690776722,0.39192749580268665,-6.645733553675327,-0.07168277142282065,0.2627689685728649,-0.43325609073132015,-0.022188556209969186,0.07904086242966173,-0.12862882340704918,0,70,255.0,255.0,255.0
139,6.95,-0.11092905721895016,0.40516479568785174,-6.667556855882965,-0.0728230317257885,0.26672403440343806,-0.43967023041046793,-0.023421855908744797,0.07916177079326339,-0.12793676375886331,0,70,255.0,255.0,255.0
140,7.0,-0.1146,0.4186,-6.6897,-0.0740249570136951,0.27068514565219126,-0.4460497671072065,-0.024655155607520296,0.07928267915686504,-0.12724470411067879,0,70,255.0,255.0,255.0
141,7.050000000000001,-0.11833145309226493,0.43223296967046226,-6.712161633525257,-0.07522089261831492,0.2746258219444186,-0.45241735969821556,-0.02318226857727177,0.07834437253222787,-0.12745899952967907,0,70,255.0,255.0,255.0
142,7.1000000000000005,-0.12212086185597298,0.44606180027225484,-6.734941914549338,-0.07634318387142229,0.2785195829054141,-0.4587956670601745,-0.021709381547023274,0.07740606590759071,-0.12767329494867932,0,70,255.0,255.0,255.0
143,7.15,-0.1259645440735486,0.4600841460388164,-6.75804137881079,-0.07739183077301724,0.2823664285351777,-0.4651846891930834,-0.020236494516774773,0.07646775928295355,-0.12788759036767958,0,70,255.0,255.0,255.0
144,7.2,-0.12985881752741613,0.4742976612035853,-6.781460562048163,-0.07836683332309977,0.28616635883370944,-0.4715844260969424,-0.018763607486526272,0.07552945265831638,-0.12810188578667986,0,70,255.0,255.0,255.0
145,7.25,-0.1338,0.4887,-6.8052,-0.07926819152166986,0.28991937380100935,-0.47799487777175137,-0.017290720456277775,0.07459114603368056,-0.12831618120567923,0,70,255.0,255.0,255.0
146,7.300000000000001,-0.1377853639134965,0.5032891210884823,-6.8292592703142505,-0.08015318375503921,0.29364373905606705,-0.48435855878134015,-0.018108968878495814,0.07438346416862691,-0.12623105917786848,0,70,255.0,255.0,255.0
147,7.3500000000000005,-0.14181600024918914,0.518064200837386,-6.853634118276444,-0.08107908840951945,0.2973577202178721,-0.4906179836895383,-0.018927217300713835,0.07417578230357326,-0.12414593715005776,0,70,255.0,255.0,255.0
148,7.4,-0.1458939546281336,0.5330247200420486,-6.878319331081514,-0.08204590548511058,0.30106131728642443,-0.4967731524963459,-0.01974546572293186,0.07396810043851962,-0.12206081512224704,0,70,255.0,255.0,255.0
149,7.45,-0.15002127267138535,0.5481701594978075,-6.903309695924389,-0.08305363498181263,0.304754530261724,-0.502824065201763,-0.020563714145149882,0.07376041857346598,-0.11997569309443631,0,70,255.0,255.0,255.0
150,7.5,-0.1542,0.5635,-6.9286,-0.08410227689962556,0.30843735914377096,-0.5087707218057894,-0.021381962567367796,0.07355273670840967,-0.1178905710666216,0,70,255.0,255.0,255.0
151,7.550000000000001,-0.15843189125374949,0.5790137459756096,-6.954186085217745,-0.08517437236152837,0.31211122183131285,-0.5146764051764263,-0.021501855908744386,0.07340177079326375,-0.11833676375885123,0,70,255.0,255.0,255.0
152,7.6000000000000005,-0.16271753714727072,0.5947109963782022,-6.980068012344887,-0.0862524624905,0.31577753622309734,-0.5206043981816746,-0.02162174925012097,0.07325080487811783,-0.11878295645108086,0,70,255.0,255.0,255.0
153,7.65,-0.16705723741391723,0.61059137379299,-7.006246896863155,-0.08733654728654047,0.3194363023191246,-0.5265547008215343,-0.021741642591497558,0.07309983896297192,-0.1192291491433105,0,70,255.0,255.0,255.0
154,7.7,-0.17145129178704255,0.6266545008051853,-7.032723854254284,-0.08842662674964975,0.3230875201193945,-0.5325273130960057,-0.021861535932874144,0.072948873047826,-0.11967534183554011,0,70,255.0,255.0,255.0
155,7.75,-0.1759,0.6429,-7.0595,-0.08952270087982787,0.3267311896239071,-0.5385222350050883,-0.021981429274250286,0.07279790713267786,-0.12012153452777152,0,70,255.0,255.0,255.0
156,7.800000000000001,-0.18040307107150608,0.6593270950090805,-7.086575588814772,-0.0905893267988473,0.33034337361868205,-0.5444878205129499,-0.02068360748652616,0.07168945265831644,-0.1185018857866863,0,70,255.0,255.0,255.0
157,7.8500000000000005,-0.18495785116172833,0.6759334136498064,-7.113947432344011,-0.0915910616284805,0.3339001348897388,-0.550372423583757,-0.019385785698802057,0.07058099818395504,-0.1168822370456011,0,70,255.0,255.0,255.0
158,7.9,-0.18956109571619764,0.6927161847859923,-7.141611481465864,-0.0925279053687275,0.3374014734370775,-0.55617604421751,-0.018087963911077955,0.06947254370959363,-0.11526258830451591,0,70,255.0,255.0,255.0
159,7.95,-0.19420956018044463,0.709672637281452,-7.169563687058477,-0.09339985801958829,0.34084738926069813,-0.5618986824142086,-0.016790142123353852,0.06836408923523223,-0.11364293956343072,0,70,255.0,255.0,255.0
160,8.0,-0.1989,0.7268,-7.1978,-0.09420691958106286,0.3442378823606007,-0.5675403381738531,-0.015492320335629417,0.06725563476087082,-0.11202329082234641,0,70,255.0,255.0,255.0
161,8.05,-0.2036302244602267,0.7440962739880699,-7.226317159523167,-0.09501232044308237,0.34761928369395917,-0.573148312771773,-0.016723714145150233,0.06800041857346387,-0.11229569309445182,0,70,255.0,255.0,255.0
162,8.1,-0.20840225820581612,0.7615625490225729,-7.25511505827907,-0.09587929099557789,0.35103792421794705,-0.5787699074832983,-0.017955107954671003,0.0687452023860569,-0.11256809536655722,0,70,255.0,255.0,255.0
163,8.15,-0.2132191797212924,0.7792006870630417,-7.284194377273391,-0.09680783123854945,0.3544938039325648,-0.5844051223084288,-0.01918650176419182,0.06948998619864995,-0.11284049763866265,0,70,255.0,255.0,255.0
164,8.200000000000001,-0.21808406749117915,0.7970125500690071,-7.313555797511808,-0.09779794117199708,0.35798692283781214,-0.5900539572471646,-0.020417895573712635,0.07023477001124301,-0.11311289991076806,0,70,255.0,255.0,255.0
165,8.25,-0.223,0.815,-7.3432,-0.09884962079592072,0.36151728093368907,-0.5957164122995056,-0.02164928938323296,0.07097955382383603,-0.11338530218287346,0,70,255.0,255.0,255.0
166,8.3,-0.2279688310875875,0.8331638090386412,-7.3731269730925595,-0.09988939142882339,0.3650194916054807,-0.6013509283999652,-0.019941535932873507,0.06910887304782737,-0.11199534183550737,0,70,255.0,255.0,255.0
167,8.35,-0.232987516015007,0.8515003902599011,-7.403333934539707,-0.10084377438920807,0.36842816823847174,-0.6069159464830562,-0.018233782482514116,0.06723819227181879,-0.11060538148814134,0,70,255.0,255.0,255.0
168,8.4,-0.23805178539863298,0.8700050669618414,-7.433817409440576,-0.1017127696770748,0.3717433108326626,-0.6124114665487792,-0.016526029032154665,0.06536751149581013,-0.10921542114077523,0,70,255.0,255.0,255.0
169,8.450000000000001,-0.24315736985483932,0.8886731624425213,-7.464573922894297,-0.10249637729242354,0.3749649193880529,-0.6178374885971339,-0.014818275581795212,0.06349683071980149,-0.10782546079340914,0,70,255.0,255.0,255.0
170,8.5,-0.2483,0.9075,-7.4956,-0.10319459723525432,0.37809299390464274,-0.6231940126281201,-0.01311052213143582,0.06162614994379334,-0.10643550044604311,0,70,255.0,255.0,255.0
171,8.55,-0.25347685118942376,0.9264820898573669,-7.526892548106596,-0.10389411384162407,0.38119874988411845,-0.6285039736283575,-0.014870142123353983,0.0626040892352328,-0.1059629395634495,0,70,255.0,255.0,255.0
172,8.6,-0.2586908777341556,0.9456206899378212,-7.5584500035621,-0.10468161144758971,0.384353402828166,-0.633790306584465,-0.016629762115272083,0.0635820285266722,-0.10549037868085591,0,70,255.0,255.0,255.0
173,8.65,-0.2639464786841759,0.9649182450895929,-7.5902711849643065,-0.10555709005315127,0.38755695273678564,-0.6390530114964431,-0.018389382107190246,0.06455996781811164,-0.10501781779826232,0,70,255.0,255.0,255.0
174,8.700000000000001,-0.26924805308946415,0.9843772001609098,-7.622354910911009,-0.10652054965830875,0.39080939960997724,-0.6442920883642914,-0.020149002099108408,0.0655379071095511,-0.10454525691566871,0,70,255.0,255.0,255.0
175,8.75,-0.2746,1.004,-7.6547,-0.1075719902630621,0.3941107434477407,-0.64950753718801,-0.02190862209102651,0.06651584640099051,-0.10407269603307778,0,70,255.0,255.0,255.0
176,8.8,-0.2800053641547181,1.023787831531893,-7.687305234481059,-0.10863015320468059,0.3973855088580466,-0.6546971770866064,-0.020417895573711875,0.06447477001124137,-0.10351289991077389,0,70,255.0,255.0,255.0
177,8.85,-0.2854617730483703,1.043736849988813,-7.7201692512118925,-0.10961377982043329,0.40055822044886485,-0.6598588271790874,-0.018927169056397297,0.06243369362149231,-0.10295310378847003,0,70,255.0,255.0,255.0
178,8.9,-0.29096549986466363,1.063841952679788,-7.753290650702199,-0.1105228701103203,0.4036288782201958,-0.6649924874654534,-0.017436442539082664,0.06039261723174317,-0.10239330766616614,0,70,255.0,255.0,255.0
179,8.950000000000001,-0.29651281778730465,1.0840980369138418,-7.78666803346167,-0.11135742407434157,0.4065974821720392,-0.6700981579457042,-0.01594571602176803,0.05835154084199403,-0.10183351154386225,0,70,255.0,255.0,255.0
180,9.0,-0.3021,1.1045,-7.8203,-0.1121174417124971,0.4094640323043952,-0.6751758386198397,-0.01445498950445323,0.05631046445224541,-0.10127371542155927,0,70,255.0,255.0,255.0
181,9.05,-0.3077240921917044,1.1250441840150636,-7.854184913969173,-0.11284927333965333,0.4123152146836964,-0.680211318025214,-0.014818275581795697,0.05773683071980253,-0.1001454607934093,0,70,255.0,255.0,255.0
182,9.1,-0.313385230072363,1.145732710106926,-7.888320191590331,-0.11359926927067666,0.41523771537637544,-0.6851903846991806,-0.015181561659138152,0.059163196987359605,-0.09901720616525936,0,70,255.0,255.0,255.0
183,9.15,-0.31908432185716984,1.1665691441912571,-7.9227030122269015,-0.11436742950556714,0.41823153438243243,-0.6901130386417398,-0.015544847736480618,0.060589563254916726,-0.09788895153710939,0,70,255.0,255.0,255.0
184,9.200000000000001,-0.32482227576131767,1.187557052183726,-7.957330555242315,-0.11515375404432475,0.42129667170186724,-0.6949792798528917,-0.015908133813823087,0.06201592952247384,-0.0967606969089594,0,70,255.0,255.0,255.0
185,9.25,-0.3306,1.2087,-7.9922,-0.11595824288694945,0.4244331273346798,-0.6997891083326356,-0.016271419891165317,0.06344229579002958,-0.09563244228080858,0,70,255.0,255.0,255.0
186,9.3,-0.3364182670784648,1.230000232407855,-8.027308709642247,-0.1167727534367063,0.42756163240716927,-0.7045535508125474,-0.016309002099108218,0.06169790710954632,-0.09494525691565857,0,70,255.0,255.0,255.0
187,9.35,-0.3422773066621772,1.2514547095834831,-8.062654782426785,-0.11758914309686026,0.43060291804563444,-0.7092836340242015,-0.016346584307051115,0.05995351842906312,-0.09425807155050858,0,70,255.0,255.0,255.0
188,9.4,-0.34817721270665747,1.2730590705551845,-8.098236500390197,-0.11840741186741141,0.43355698425007555,-0.7139793579675981,-0.016384166514994015,0.05820912974857987,-0.09357088618535858,0,70,255.0,255.0,255.0
189,9.450000000000001,-0.35411807916742516,1.2948089543512575,-8.134052145569074,-0.11922755974835968,0.4364238310204925,-0.7186407226427375,-0.016421748722936915,0.05646474106809661,-0.09288370082020857,0,70,255.0,255.0,255.0
190,9.5,-0.3601,1.3167,-8.1701,-0.12004958673970509,0.4392034583568852,-0.723267728049619,-0.016459330930879812,0.054720352387613413,-0.09219651545505503,0,70,255.0,255.0,255.0
191,9.55,-0.36612283949443675,1.3387284863535183,-8.206378647461836,-0.1208597129135213,0.4419342556876254,-0.7278784787245918,-0.015945716021768013,0.05451154084199521,-0.09223351154385018,0,70,255.0,255.0,255.0
192,9.600000000000001,-0.372185543278928,1.3608932515591419,-8.242887878702534,-0.1216441583418819,0.4446546124410848,-0.7324910792040041,-0.015432101112656213,0.054302729296377,-0.09227050763264533,0,70,255.0,255.0,255.0
193,9.65,-0.3782868273162007,1.3831937735880053,-8.279627786212313,-0.12240292302478692,0.4473645286172631,-0.7371055294878561,-0.014918486203544431,0.0540939177507588,-0.09230750372144048,0,70,255.0,255.0,255.0
194,9.700000000000001,-0.3844254075689824,1.4056295304112465,-8.316598462481394,-0.12313600696223635,0.4500640042161606,-0.7417218295761483,-0.01440487129443263,0.053885106205140594,-0.09234449981023563,0,70,255.0,255.0,255.0
195,9.75,-0.3906,1.4282,-8.3538,-0.12384341015423017,0.45275303923777716,-0.7463399794688799,-0.013891256385321071,0.053676294659522394,-0.09238149589902811,0,70,255.0,255.0,255.0
196,9.8,-0.39680957494378843,1.450905022178073,-8.391231900510407,-0.12454039490920879,0.4554533448423272,-0.7509245342890808,-0.01398813381382329,0.05433592952247866,-0.09100069690900517,0,70,255.0,255.0,255.0
197,9.850000000000001,-0.40305412022211146,1.4737458841799522,-8.428891302763084,-0.12524222353561254,0.4581866321900251,-0.7554400491597806,-0.01408501124232551,0.05499556438543493,-0.08961989791898223,0,70,255.0,255.0,255.0
198,9.9,-0.4093338780285401,1.4967242350927947,-8.466774754760557,-0.12594889603344134,0.4609529012808707,-0.759886524080979,-0.014181888670827725,0.05565519924839118,-0.08823909892895933,0,70,255.0,255.0,255.0
199,9.950000000000001,-0.41564909055664595,1.5198417240037585,-8.504878804505356,-0.1266604124026953,0.4637521521148642,-0.7642639590526764,-0.014278766099329945,0.056314834111347446,-0.08685829993893639,0,70,255.0,255.0,255.0
200,10.0,-0.422,1.5431,-8.5432,-0.1273767726433743,0.4665843846920054,-0.7685723540748726,-0.014375643527830606,0.05697446897430192,-0.08547750094891171,0,70,255.0,255.0,255.0
201,10.05,-0.4283868607304099,1.5664994249341908,-8.581735350496544,-0.12809870744964347,0.4693723649430654,-0.7728393841190994,-0.014501748722935527,0.05454474106809611,-0.08520370082015667,0,70,255.0,255.0,255.0
202,10.100000000000001,-0.4348099758326271,1.590035211721052,-8.620483710245137,-0.12882694751566787,0.47203885879881513,-0.7770927241568883,-0.014627853918040449,0.05211501316189031,-0.08492990069140162,0,70,255.0,255.0,255.0
203,10.15,-0.44126966056963923,1.613701286040817,-8.65944439474546,-0.1295614928414475,0.4745838662592544,-0.7813323741882394,-0.014753959113145367,0.049685285255684594,-0.08465610056264658,0,70,255.0,255.0,255.0
204,10.200000000000001,-0.4477662302044344,1.637491573573722,-8.698616719497187,-0.1303023434269824,0.4770073873243835,-0.785558334213153,-0.014880064308250288,0.04725555734947878,-0.08438230043389154,0,70,255.0,255.0,255.0
205,10.25,-0.4543,1.6614,-8.738,-0.1310494992722725,0.4793094219942023,-0.7897706042316286,-0.015006169503354094,0.044825829443270404,-0.08410850030513473,0,70,255.0,255.0,255.0
206,10.3,-0.4608709821345725,1.6854220780851652,-8.777593097503422,-0.13178477529221722,0.4815851953854125,-0.7939419292345135,-0.014404871294433788,0.04620510620513649,-0.0827444998102571,0,70,255.0,255.0,255.0
207,10.350000000000001,-0.4674779764473811,1.7095596689358434,-8.817393056256373,-0.1324899864017159,0.483929932614716,-0.7980450542126544,-0.013803573085513481,0.04758438296700258,-0.08138049931537945,0,70,255.0,255.0,255.0
208,10.4,-0.4741194796929033,1.733816220743938,-8.857396466257612,-0.13316513260076854,0.48634363368211275,-0.8020799791660513,-0.013202274876593197,0.04896365972886861,-0.08001649882050187,0,70,255.0,255.0,255.0
209,10.450000000000001,-0.4807939886256172,1.7581951817013561,-8.897599917505898,-0.13381021388937522,0.48882629858760285,-0.8060467040947046,-0.012600976667672889,0.0503429364907347,-0.07865249832562424,0,70,255.0,255.0,255.0
210,10.5,-0.4875,1.7827,-8.938,-0.13442523026753583,0.4913779273311861,-0.8099452289986137,-0.011999678458752605,0.0517222132525994,-0.07728849783074043,0,70,255.0,255.0,255.0
211,10.55,-0.49423641073130054,1.8073330627251498,-8.978593859489765,-0.13503419138148787,0.4939348535152848,-0.8138088989428552,-0.012358766099328561,0.050554834111347605,-0.07725829993892237,0,70,255.0,255.0,255.0
212,10.600000000000001,-0.5010037183778495,1.8320925125355783,-9.019380864729378,-0.1356611068774687,0.49643341074232095,-0.817671058992506,-0.012717853739904516,0.049387454970095813,-0.07722810204710431,0,70,255.0,255.0,255.0
213,10.65,-0.5078028206587479,1.8569754309834308,-9.060360940224106,-0.13630597675547831,0.49887359901229444,-0.8215317091475657,-0.013076941380480458,0.04822007582884406,-0.07719790415528624,0,70,255.0,255.0,255.0
214,10.700000000000001,-0.5146346152930977,1.8819788996208564,-9.101534010479224,-0.13696880101551676,0.5012554183252054,-0.8253908494080346,-0.013436029021056414,0.047052696687592266,-0.07716770626346818,0,70,255.0,255.0,255.0
215,10.75,-0.5215,1.9071,-9.1429,-0.13764957965758398,0.5035788686810536,-0.8292484797739124,-0.013795116661632578,0.0458853175463414,-0.07713750837164568,0,70,255.0,255.0,255.0
216,10.8,-0.5283993749402257,1.9323360710142372,-9.18445866453752,-0.13831845918183108,0.5058593905534492,-0.8330944749940513,-0.012960064308250929,0.04533555734948286,-0.07670230043390873,0,70,255.0,255.0,255.0
217,10.850000000000001,-0.5353311500412222,1.9576854809218482,-9.226209084826122,-0.1389455860884091,0.508112424416002,-0.8369187098173033,-0.012125011954869279,0.044785797152624325,-0.07626709249617178,0,70,255.0,255.0,255.0
218,10.9,-0.5422932376721055,1.98314685532234,-9.268150172845969,-0.139530960377318,0.5103379702687116,-0.8407211842436685,-0.011289959601487659,0.044236036955765806,-0.07583188455843483,0,70,255.0,255.0,255.0
219,10.950000000000001,-0.5492835502019927,2.008718819815222,-9.310280840577208,-0.14007458204855786,0.5125360281115785,-0.8445018982731468,-0.010454907248106009,0.04368627675890727,-0.07539667662069788,0,70,255.0,255.0,255.0
220,11.0,-0.5563,2.0344,-9.3526,-0.1405764511021286,0.5147065979446025,-0.8482608519057383,-0.0096198548947235,0.043136516562047866,-0.0749614686829636,0,70,255.0,255.0,255.0
221,11.05,-0.5633412895077969,2.0601890532179037,-9.39510588236016,-0.1410839718911885,0.5168515842709218,-0.8519572010809533,-0.010680976667671664,0.04266293649072512,-0.07289249832563606,0,70,255.0,255.0,255.0
222,11.100000000000001,-0.5704092814572631,2.0860847637770337,-9.437793995966132,-0.14164454876889576,0.5189728915936751,-0.855550101738302,-0.011742098440619828,0.042189356419402364,-0.07082352796830851,0,70,255.0,255.0,255.0
223,11.15,-0.5775066286528306,2.1120859477272114,-9.480659168392025,-0.14225818173525046,0.521070519912862,-0.8590395538777842,-0.012803220213567952,0.04171577634807963,-0.06875455761098105,0,70,255.0,255.0,255.0
224,11.200000000000001,-0.5846359838989323,2.13819142111826,-9.523696227211946,-0.14292487079025257,0.523144469228483,-0.8624255574994001,-0.013864341986516116,0.04124219627675688,-0.0666855872536535,0,70,255.0,255.0,255.0
225,11.25,-0.5918,2.1644,-9.5669,-0.14364461593390204,0.5251947395405376,-0.8657081126031494,-0.01492546375946402,0.04076861620543326,-0.06461661689632514,0,70,255.0,255.0,255.0
226,11.3,-0.5990002670285869,2.1907109161141523,-9.610266606021849,-0.14435365325341504,0.5272462723628633,-0.8689647206821424,-0.013436029021055763,0.04129269668759364,-0.06564770626339006,0,70,255.0,255.0,255.0
227,11.350000000000001,-0.6062341241297264,2.2171250639700224,-9.653797331309354,-0.14498821883600763,0.5293240092092971,-0.8722728832294885,-0.011946594282647507,0.04181677716975402,-0.06667879563045498,0,70,255.0,255.0,255.0
228,11.4,-0.6134978477165722,2.2436437537688168,-9.697494753585936,-0.1455483126816798,0.5314279500798387,-0.8756326002451879,-0.010457159544239304,0.04234085765191438,-0.06770988499751987,0,70,255.0,255.0,255.0
229,11.450000000000001,-0.620787714202279,2.270268295711741,-9.741361450575015,-0.14603393479043156,0.5335580949744885,-0.8790438717292404,-0.008967724805831048,0.042864938134074757,-0.06874097436458479,0,70,255.0,255.0,255.0
230,11.5,-0.6281,2.297,-9.7854,-0.14644508516226293,0.5357144438932461,-0.8825066976816464,-0.00747829006742351,0.04338901861623601,-0.06977206373165057,0,70,255.0,255.0,255.0
231,11.55,-0.6354320423778562,2.3238392823254923,-9.829611693552451,-0.14684541509515123,0.5378433262776247,-0.8859439161904573,-0.008534907248108207,0.04176627675890871,-0.06771667662078557,0,70,255.0,255.0,255.0
232,11.600000000000001,-0.6427854220238325,2.350782980342882,-9.873992678796455,-0.14729857588707376,0.539891071569137,-0.889278365343725,-0.009591524428792905,0.04014353490158142,-0.06566128950992058,0,70,255.0,255.0,255.0
233,11.65,-0.6501627804808807,2.377827037197525,-9.91853781726423,-0.1478045675380305,0.5418576797677829,-0.8925100451414494,-0.010648141609477565,0.03852079304425419,-0.06360590239905564,0,70,255.0,255.0,255.0
234,11.700000000000001,-0.6575667592919529,2.4049673960347797,-9.963241970488006,-0.14836339004802152,0.5437431508735624,-0.8956389555836305,-0.011704758790162261,0.03689805118692689,-0.061550515288190645,0,70,255.0,255.0,255.0
235,11.75,-0.665,2.4322,-10.0081,-0.14897504341704673,0.5455474848864755,-0.8986650966702684,-0.012761375970847366,0.03527530932959966,-0.05949512817732927,0,70,255.0,255.0,255.0
236,11.8,-0.6724643634599893,2.4595215545838807,-10.053107419768352,-0.14959268636598078,0.5473164225266346,-0.9016276145560426,-0.011944341986513984,0.035482196276760726,-0.059005587253637685,0,70,255.0,255.0,255.0
237,11.850000000000001,-0.6799585877749447,2.4869318146584534,-10.098262353504836,-0.15016947761569815,0.5490957045141516,-0.9045656553956323,-0.011127308002180602,0.035689083223921794,-0.0585160463299461,0,70,255.0,255.0,255.0
238,11.9,-0.6874806303599054,2.514431297441085,-10.143563577357146,-0.15070541716619884,0.5508853308490267,-0.9074792191890372,-0.01031027401784725,0.03589597017108286,-0.058026505406254536,0,70,255.0,255.0,255.0
239,11.950000000000001,-0.6950284486299109,2.5420205201491455,-10.18900986747297,-0.15120050501748286,0.5526853015312599,-0.9103683059362577,-0.009493240033513865,0.03610285711824393,-0.057536964482562944,0,70,255.0,255.0,255.0
240,12.0,-0.7026,2.5697,-10.2346,-0.15165474116955024,0.5544956165608511,-0.9132329156372936,-0.008676206049180735,0.03630974406540499,-0.05704742355887227,0,70,255.0,255.0,255.0
241,12.05,-0.7101937037821877,2.5974696993389865,-10.28033302737415,-0.15209583944092556,0.5562829836158382,-0.9160896255853791,-0.00896772480583135,0.0351849381340754,-0.05722097436454341,0,70,255.0,255.0,255.0
242,12.100000000000001,-0.71780982687639,2.6253273610233085,-10.32620910718421,-0.1525515136501334,0.5580141103742587,-0.918955013073748,-0.009259243562481964,0.034060132202745806,-0.05739452517021455,0,70,255.0,255.0,255.0
243,12.15,-0.7254490980794982,2.6532701730381363,-10.372228673307196,-0.15302176379717375,0.5596889968361127,-0.9218290781024004,-0.009550762319132568,0.03293532627141626,-0.057568075975885695,0,70,255.0,255.0,255.0
244,12.200000000000001,-0.7331122461884045,2.681295323368644,-10.41839215962012,-0.15350658988204663,0.5613076430014003,-0.9247118206713365,-0.009842281075783183,0.03181052034008666,-0.05774162678155684,0,70,255.0,255.0,255.0
245,12.25,-0.7408,2.7094,-10.4647,-0.1540059919047521,0.5628700488701215,-0.9276032407805561,-0.010133799832434454,0.03068571440875978,-0.05791517758722797,0,70,255.0,255.0,255.0
246,12.3,-0.7485128214112606,2.737582048060175,-10.511151670735055,-0.15450395587031704,0.5644156430100136,-0.930445883102442,-0.009784758790162712,0.031138051186923837,-0.055790515288205327,0,70,255.0,255.0,255.0
247,12.350000000000001,-0.7562501047194967,2.765841941248317,-10.557742817758331,-0.15498446778376837,0.5659838539888139,-0.9331822923093768,-0.009435717747890971,0.031590387965087896,-0.05366585298918268,0,70,255.0,255.0,255.0
248,12.4,-0.7640109773221022,2.7941808104063712,-10.604468129414077,-0.1554475276451061,0.5675746818065224,-0.9358124684013602,-0.009086676705619244,0.03204272474325194,-0.0515411906901601,0,70,255.0,255.0,255.0
249,12.450000000000001,-0.771794566616472,2.822599786376285,-10.65132229404655,-0.1558931354543303,0.569188126463139,-0.9383364113783927,-0.008737635663347502,0.032495061521416,-0.04941652839113746,0,70,255.0,255.0,255.0
250,12.5,-0.7796,2.8511,-10.6983,-0.1563212912114409,0.570824187958664,-0.9407541212404739,-0.008388594621075551,0.032947398299580044,-0.04729186609210867,0,70,255.0,255.0,255.0
251,12.55,-0.7874262105727703,2.8796821084203166,-10.745397089685635,-0.15672033707780564,0.5724544443441096,-0.9431348420048412,-0.0075732400335139505,0.0322628571182438,-0.04793696448258428,0,70,255.0,255.0,255.0
252,12.600000000000001,-0.7952713542456245,2.9083448739834274,-10.792614021782478,-0.1570786152147923,0.5740504736704884,-0.9455478176887324,-0.006757885445952349,0.03157831593690757,-0.04858206287305988,0,70,255.0,255.0,255.0
253,12.65,-0.8031333926320933,2.93708658533638,-10.839952409036501,-0.15739612562240088,0.5756122759378003,-0.9479930482921471,-0.0059425308583907765,0.03089377475557135,-0.04922716126353546,0,70,255.0,255.0,255.0
254,12.700000000000001,-0.8110102873457081,2.965905531126223,-10.887413864193684,-0.15767286830063137,0.5771398511460455,-0.950470533815086,-0.005127176270829175,0.030209233574235113,-0.04987225965401107,0,70,255.0,255.0,255.0
255,12.75,-0.8189,2.9948,-10.935,-0.1579088432494838,0.5786331992952238,-0.9529802742575483,-0.0043118216832671585,0.029524692392900675,-0.05051735804448665,0,70,255.0,255.0,255.0
256,12.8,-0.8268015362976585,3.023767918258564,-10.982711170522409,-0.15816669581846013,0.5800705796135485,-0.9554467488781991,-0.0060022810757860215,0.027970520340080872,-0.04814162678154631,0,70,255.0,255.0,255.0
257,12.850000000000001,-0.8347180782980067,3.0528057628179783,-11.03054269511177,-0.15850907135706238,0.581430251329232,-0.957794436935703,-0.007692740468304885,0.026416348287261072,-0.04576589551860597,0,70,255.0,255.0,255.0
258,12.9,-0.8426538521495252,3.08190964824811,-11.078488634439926,-0.1589359698652906,0.5827122144422745,-0.9600233384300597,-0.009383199860823688,0.024862176234441324,-0.04339016425566571,0,70,255.0,255.0,255.0
259,12.950000000000001,-0.850613084000696,3.1110756891188283,-11.126543049178723,-0.15944739134314476,0.5839164689526761,-0.9621334533612695,-0.011073659253342551,0.023308004181621524,-0.04101443299272538,0,70,255.0,255.0,255.0
260,13.0,-0.8586,3.1403,-11.1747,-0.16004333579062482,0.5850430148604367,-0.9641247817293322,-0.012764118645860245,0.02175383212880444,-0.038638701729786895,0,70,255.0,255.0,255.0
261,13.05,-0.866617244236596,3.16957981854543,-11.222955028224737,-0.16062887964835496,0.5861592372016927,-0.966086162482355,-0.01065763566334496,0.022895061521430032,-0.03981652839112348,0,70,255.0,255.0,255.0
262,13.100000000000001,-0.8746611325623503,3.198916874744664,-11.271309597770454,-0.16110909935695933,0.5873325210125798,-0.9681064345684447,-0.008551152680829673,0.024036290914055625,-0.04099435505246006,0,70,255.0,255.0,255.0
263,13.15,-0.8827263987698064,3.228314021671182,-11.3197666532038,-0.16148399491643795,0.5885628662930982,-0.9701855979876011,-0.006444669698314461,0.025177520306681175,-0.04217218171379661,0,70,255.0,255.0,255.0
264,13.200000000000001,-0.8908077766515086,3.2577741123984674,-11.368329139091433,-0.16175356632679078,0.5898502730432479,-0.9723236527398244,-0.004338186715799174,0.026318749699306768,-0.04335000837513319,0,70,255.0,255.0,255.0
265,13.25,-0.8989,3.2873,-11.417,-0.16191781358801785,0.5911947412630288,-0.9745205988251143,-0.002231703733283963,0.027459979091934095,-0.04452783503646973,0,70,255.0,255.0,255.0
266,13.3,-0.9069990867559582,3.316893607559718,-11.465780716578644,-0.16205378558812064,0.5925404715796831,-0.9766886011923768,-0.0032071762708273306,0.026369233574236425,-0.04219225965402856,0,70,255.0,255.0,255.0
267,13.350000000000001,-0.9151061914525936,3.3465531382033715,-11.514666913806419,-0.16223853121510057,0.5938316646204526,-0.9787398247905172,-0.004182648808370698,0.025278488056538755,-0.039856684271587395,0,70,255.0,255.0,255.0
268,13.4,-0.9232237527712495,3.3762758650671647,-11.563652752744874,-0.1624720504689577,0.595068320385337,-0.9806742696195355,-0.005158121345914031,0.02418774253884112,-0.03752110888914631,0,70,255.0,255.0,255.0
269,13.450000000000001,-0.9313542093932706,3.4060590612873067,-11.612732394455556,-0.16275434334969197,0.5962504388743367,-0.9824919356794318,-0.006133593883457399,0.02309699702114345,-0.03518553350670514,0,70,255.0,255.0,255.0
270,13.5,-0.9395,3.4359,-11.6619,-0.16308540985730346,0.5973780200874513,-0.984192822970206,-0.0071090664210005095,0.02200625150344404,-0.0328499581242605,0,70,255.0,255.0,255.0
271,13.55,-0.9476632087395717,3.4657961512157014,-11.711150905460695,-0.16344397799916208,0.5984628764795776,-0.9858474327481311,-0.0072336592533442726,0.0213880041816095,-0.03333443299274262,0,70,255.0,255.0,255.0
272,13.600000000000001,-0.9558445016272767,3.495745772441857,-11.76048514700387,-0.1638087757826379,0.5995168205056124,-0.9875262662694804,-0.0073582520856880365,0.020769756859774963,-0.03381890786122474,0,70,255.0,255.0,255.0
273,13.65,-0.9640441901451957,3.5257473180601613,-11.809903935816697,-0.1641798032077309,0.6005398521655552,-0.9892293235342536,-0.007482844918031795,0.020151509537940444,-0.03430338272970684,0,70,255.0,255.0,255.0
274,13.700000000000001,-0.97226258577541,3.5557992424523106,-11.859408483086353,-0.16455706027444106,0.6015319714594064,-0.990956604542451,-0.007607437750375559,0.019533262216105903,-0.034787857598188955,0,70,255.0,255.0,255.0
275,13.75,-0.9805,3.5859,-11.909,-0.16494054698276844,0.6024931783871657,-0.9927081092940725,-0.007732030582718874,0.0189150148942705,-0.0352723324666675,0,70,255.0,255.0,255.0
276,13.8,-0.9887560782857557,3.6160481875774786,-11.958678861578584,-0.16529030241523138,0.6034320225020052,-0.9944336678151172,-0.006258186715798854,0.01863874969930883,-0.033750008375120696,0,70,255.0,255.0,255.0
277,13.850000000000001,-0.997027802038301,3.6462429720292056,-12.008442098178104,-0.16556636565434832,0.6043570533570966,-0.9960831101315847,-0.004784342848878834,0.018362484504347156,-0.0322276842835739,0,70,255.0,255.0,255.0
278,13.9,-1.005311486647968,3.676483662692192,-12.058285903988333,-0.16576873670011927,0.6052682709524398,-0.9976564362434747,-0.003310498981958865,0.018086219309385497,-0.030705360192027152,0,70,255.0,255.0,255.0
279,13.950000000000001,-1.0136034475050906,3.7067695689034537,-12.108206473199042,-0.16589741555254423,0.6061656752880351,-0.9991536461507873,-0.0018366551150388452,0.017809954114423827,-0.029183036100480356,0,70,255.0,255.0,255.0
280,14.0,-1.0219,3.7371,-12.1582,-0.16595240221162316,0.6070492663638823,-1.0005747398535225,-0.00036281124811843313,0.017533688919461277,-0.02766071200893272,0,70,255.0,255.0,255.0
281,14.05,-1.030198878117406,3.7674742984743865,-12.208263248224979,-0.16601881233991247,0.6079210335123978,-1.0019538959914123,-0.0022935938834535204,0.017336997021155473,-0.027505533506654342,0,70,255.0,255.0,255.0
282,14.100000000000001,-1.038503490219521,3.797891939441325,-12.258395260283725,-0.16618176159996853,0.6087829660659979,-1.0033252932041878,-0.004224376518788608,0.01714030512284967,-0.027350355004375965,0,70,255.0,255.0,255.0
283,14.15,-1.0468186632629326,3.82835243117107,-12.308595648229979,-0.1664412499917913,0.6096350640246827,-1.00468893149185,-0.0061551591541236265,0.016943613224543873,-0.027195176502097594,0,70,255.0,255.0,255.0
284,14.200000000000001,-1.0551492242042295,3.858855281933878,-12.358864024117493,-0.16679727751538087,0.6104773273884524,-1.0060448108543978,-0.008085941789458713,0.01674692132623807,-0.027039997999819217,0,70,255.0,255.0,255.0
285,14.25,-1.0635,3.8894,-12.4092,-0.16724984417073718,0.6113097561573064,-1.0073929312918317,-0.010016724424793289,0.016550229427929608,-0.02688481949753374,0,70,255.0,255.0,255.0
286,14.3,-1.0718740092446204,3.9199858185249794,-12.459602545521506,-0.1676904482251165,0.6121158434484071,-1.0086947482192252,-0.007607437750379519,0.015693262216096557,-0.025187857598207207,0,70,255.0,255.0,255.0
287,14.350000000000001,-1.0802670370836165,3.9506108702054985,-12.510068060687006,-0.16801058794577514,0.6128790823789161,-1.0099117170516525,-0.005198151075965749,0.014836295004263509,-0.023490895698880673,0,70,255.0,255.0,255.0
288,14.4,-1.088673060300302,3.9812730126235274,-12.560592303091756,-0.1682102633327131,0.6135994729488334,-1.0110438377891133,-0.0027888644015520653,0.013979327792430489,-0.0217939337995542,0,70,255.0,255.0,255.0
289,14.450000000000001,-1.0970860556779922,4.011970103361039,-12.611171030331004,-0.16828947438593037,0.6142770151581591,-1.0120911104316077,-0.0003795777271382965,0.013122360580597441,-0.020096971900227665,0,70,255.0,255.0,255.0
290,14.5,-1.1055,4.0427,-12.6618,-0.16824822110542692,0.6149117090068932,-1.013053534979136,0.002029708947275388,0.012265393368760868,-0.018400010000894085,0,70,255.0,255.0,255.0
291,14.55,-1.1139106849041134,4.073460827425699,-12.712476169689,-0.16819539475962106,0.6155195926939724,-1.014003111131671,8.33448849588414e-05,0.012049954114410963,-0.019583036100500467,0,70,255.0,255.0,255.0
292,14.600000000000001,-1.1223211614460142,4.1042517797366855,-12.763201296968251,-0.16823988661693104,0.6161167044183343,-1.0150118385891862,-0.0018630191773577054,0.011834514860061056,-0.02076606220010685,0,70,255.0,255.0,255.0
293,14.65,-1.1307362955358584,4.135072318334821,-12.813978339403,-0.16838169667735683,0.6167030441799786,-1.0160797173516816,-0.003809383239674183,0.011619075605711158,-0.02194908829971319,0,70,255.0,255.0,255.0
294,14.700000000000001,-1.1391609530838018,4.165921904621973,-12.864810254558503,-0.16862082494089844,0.6172786119789054,-1.0172067474191575,-0.00575574730199073,0.011403636351361253,-0.023132114399319573,0,70,255.0,255.0,255.0
295,14.75,-1.1476,4.1968,-12.9157,-0.16895727140755593,0.6178434078151147,-1.0183929287916138,-0.007702111364306985,0.01118819709701313,-0.02431514049892769,0,70,255.0,255.0,255.0
296,14.8,-1.156056851138927,4.227706071772223,-12.966648775722495,-0.16930397273639997,0.6183977857756968,-1.0195328072540828,-0.006165941789454199,0.01098692132626837,-0.021279997999830824,0,70,255.0,255.0,255.0
297,14.850000000000001,-1.1645291171323278,4.258639610847761,-13.017650751439994,-0.16957386558650137,0.6189420999477415,-1.0205209285915968,-0.004629772214601414,0.01078564555552361,-0.018244855500733962,0,70,255.0,255.0,255.0
298,14.9,-1.1730129575562647,4.289600114037187,-13.068698339296239,-0.1697669499578601,0.6194763503312491,-1.0213572928041563,-0.003093602639748683,0.010584369784778856,-0.015209713001637204,0,70,255.0,255.0,255.0
299,14.950000000000001,-1.1815045319868014,4.3205870781510765,-13.119783951434993,-0.16988322585047622,0.6200005369262195,-1.0220418998917606,-0.0015574330648958972,0.010383094014034096,-0.01217457050254034,0,70,255.0,255.0,255.0
300,15.0,-1.19,4.3516,-13.1709,-0.16992269326434967,0.6205146597326524,-1.0225747498544104,-2.1263490042056077e-05,0.010181818243286678,-0.009139428003441807,0,70,255.0,255.0,255.0
301,15.05,-1.1984963105401787,4.382638085485412,-13.222040727421016,-0.16993271429477916,0.6210012642032489,-1.0230656598520018,-0.0003795777271380858,0.00928236058056998,-0.010496971900211014,0,70,255.0,255.0,255.0
302,15.100000000000001,-1.2069935700246757,4.413699376872274,-13.273207697271783,-0.16996065103706348,0.6214428957907094,-1.0236244470444316,-0.0007378919642341155,0.008382902917853282,-0.01185451579698022,0,70,255.0,255.0,255.0
303,15.15,-1.215492674239083,4.4447816255164305,-13.324404303412038,-0.17000650349120258,0.6218395544950341,-1.0242511114316997,-0.0010962062013301324,0.007483445255136617,-0.013212059693749377,0,70,255.0,255.0,255.0
304,15.200000000000001,-1.2239945189689936,4.475882582773725,-13.375633939701533,-0.1700702716571965,0.6221912403162231,-1.0249456530138066,-0.001454520438426162,0.006583987592419918,-0.014569603590518582,0,70,255.0,255.0,255.0
305,15.25,-1.2325,4.507,-13.4269,-0.17015195553504522,0.622497953254276,-1.0257080717907514,-0.0018128346755224012,0.005684529929698812,-0.015927147487285964,0,70,255.0,255.0,255.0
306,15.3,-1.2410099067003577,4.538131986286135,-13.478204314593444,-0.17024517008448306,0.6227811574113025,-1.0264445533379163,-0.0019157473019913345,0.0056436363513576275,-0.013532114399310268,0,70,255.0,255.0,255.0
307,15.350000000000001,-1.2495246027689706,4.569278081663148,-13.529542459472887,-0.17034353026524438,0.6230623168894118,-1.0270612832306825,-0.0020186599284602678,0.005602742773016443,-0.011137081311334573,0,70,255.0,255.0,255.0
308,15.4,-1.2580443454874042,4.600438183897094,-13.580908447055604,-0.17044703607732908,0.623341431688604,-1.0275582614690497,-0.002121572554929197,0.005561849194675261,-0.008742048223358962,0,70,255.0,255.0,255.0
309,15.450000000000001,-1.2665693921372254,4.631612190754026,-13.632296289758884,-0.17055568752073727,0.6236185018088793,-1.0279354880530183,-0.0022244851813981305,0.005520955616334077,-0.006347015135383265,0,70,255.0,255.0,255.0
310,15.5,-1.2751,4.6628,-13.6837,-0.1706694845954689,0.6238935272502376,-1.028192962982588,-0.0023273978078661717,0.005480062037995559,-0.003951982047407654,0,70,255.0,255.0,255.0
311,15.55,-1.2836360626583903,4.69400116937005,-13.735114814205213,-0.17076660536728805,0.6241461061515391,-1.0284041267963364,-0.0015574330648992054,0.004623094014064387,-0.004494570502524916,0,70,255.0,255.0,255.0
312,15.600000000000001,-1.2921760188994431,4.725213896475134,-13.786540864836683,-0.1708252279019588,0.6243558366516441,-1.0286424200328406,-0.000787468321932239,0.0037661259901332154,-0.005037158957642178,0,70,255.0,255.0,255.0
313,15.65,-1.3007179438113006,4.756436038895194,-13.837979508365542,-0.17084535219948127,0.6245227187505524,-1.0289078426921006,-1.7503578965300057e-05,0.0029091579662020744,-0.005579747412759421,0,70,255.0,255.0,255.0
314,15.700000000000001,-1.3092599124821056,4.787665454210169,-13.889432101262935,-0.17082697825985535,0.6246467524482643,-1.0292003947741166,0.0007524611640016663,0.0020521899422709026,-0.006122335867876683,0,70,255.0,255.0,255.0
315,15.75,-1.3178,4.8189,-13.9409,-0.1707701060830811,0.6247279377447795,-1.0295200762788883,0.0015224259069681612,0.0011952219183379853,-0.006664924322993926,0,70,255.0,255.0,255.0
316,15.8,-1.3263370426660812,4.850137736233668,-13.99238362858571,-0.1707204084463675,0.6247784179825479,-1.0298109394767265,0.00046547956157730504,0.0008239875923956977,-0.0049696035905391275,0,70,255.0,255.0,255.0
317,15.850000000000001,-1.3348729216332582,4.881377532436318,-14.043879681180396,-0.17072355812692336,0.6248103365040191,-1.0300170366379422,-0.0005914667838135511,0.0004527532664534101,-0.0032742828580843283,0,70,255.0,255.0,255.0
318,15.9,-1.3434102792673948,4.912618460522132,-14.095383919482225,-0.17077955512474882,0.6248236933091933,-1.030138367762535,-0.00164841312920437,8.15189405111356e-05,-0.0015789621256295898,0,70,255.0,255.0,255.0
319,15.950000000000001,-1.3519517579343543,4.943859592405298,-14.146892105189373,-0.1708883994398438,0.6248184883980702,-1.0301749328505052,-0.002705359474595226,-0.0002897153854311519,0.00011635860682520944,0,70,255.0,255.0,255.0
320,16.0,-1.3605,4.9751,-14.1984,-0.1710500910722083,0.6247947217706502,-1.0301267319018528,-0.003762305819986267,-0.0006609497113725382,0.0018116793392817243,0,70,255.0,255.0,255.0
321,16.05,-1.369056566677286,5.00633908569528,-14.249904271451948,-0.1711997608472428,0.6247722219182742,-1.0300481152967558,-0.002224485181393621,-0.00023904438366776872,0.0013329848646005547,0,70,255.0,255.0,255.0
322,16.1,-1.377618694567526,5.037577573779602,-14.301405210441738,-0.17127253959034766,0.6247708173322833,-1.0299934334153928,-0.0006866645428009752,0.00018286094403700077,0.0008542903899193851,0,70,255.0,255.0,255.0
323,16.150000000000002,-1.3861825391191225,5.068816519016282,-14.352904013705555,-0.17126842730152292,0.624790508012678,-1.0299626862577638,0.0008511560957916711,0.0006047662717417704,0.00037559591523821556,0,70,255.0,255.0,255.0
324,16.2,-1.394744255780479,5.100056976168641,-14.404401877979575,-0.1711874239807685,0.6248312939594576,-1.0299558738238688,0.002388976734384207,0.0010266715994465098,-0.00010309855944291998,0,70,255.0,255.0,255.0
325,16.25,-1.4033,5.1313,-14.4559,-0.1710295296280845,0.6248931751726226,-1.0299729961137079,0.003926797372977298,0.001448576927149503,-0.0005817930341152078,0,70,255.0,255.0,255.0
326,16.3,-1.411847090624775,5.162545920985214,-14.507398485606492,-0.17086454816466012,0.6249326943443577,-1.0299485993362572,0.0026724611639972018,0.00013218994225672534,0.0015576641321416976,0,70,255.0,255.0,255.0
327,16.35,-1.4203875000966402,5.193792172445283,-14.558893077052655,-0.17076228351168476,0.6249063941668482,-1.0298172297004937,0.001418124955017106,-0.0011841970426360524,0.003697121298398603,0,70,255.0,255.0,255.0
328,16.400000000000002,-1.4289243642561182,5.225035463412746,-14.61037842569557,-0.1707227356691584,0.6248142746400941,-1.0295788872064173,0.00016378874603701016,-0.00250058402752883,0.005836578464655509,0,70,255.0,255.0,255.0
329,16.45,-1.4374608189437301,5.256272502920138,-14.661849182892324,-0.17074590463708106,0.6246563357640953,-1.0292335718540282,-0.0010905474629429963,-0.003816971012421514,0.007976035630912263,0,70,255.0,255.0,255.0
330,16.5,-1.446,5.2875,-14.7133,-0.17083179041545268,0.624432577538852,-1.028781283643326,-0.0023448836719219823,-0.005133357997316068,0.010115492797169168,0,70,255.0,255.0,255.0
331,16.55,-1.4545438708236138,5.318714830363867,-14.764726586122084,-0.17091004649411562,0.6241530007042836,-1.0282854873582261,-0.0007853594745951264,-0.0060497153854172,0.009716358606834768,0,70,255.0,255.0,255.0
332,16.6,-1.463089705045914,5.349914536439272,-14.81612888134765,-0.1709103263629122,0.6238276060003103,-1.0278096477826426,0.0007741647227317294,-0.006966072773518332,0.00931722441650037,0,70,255.0,255.0,255.0
333,16.650000000000002,-1.4716336038564075,5.381096827332743,-14.867507883512173,-0.17083263002184243,0.6234563934269317,-1.027353764916576,0.0023336889200585853,-0.007882430161619464,0.00891809022616597,0,70,255.0,255.0,255.0
334,16.7,-1.4801716684446,5.412259412150807,-14.91886459045113,-0.17067695747090636,0.6230393629841483,-1.026917838760026,0.00389321311738533,-0.00879878754972053,0.0085189560358316,0,70,255.0,255.0,255.0
335,16.75,-1.4887,5.4434,-14.9702,-0.1704433087101039,0.6225765146719598,-1.0265018693129926,0.005452737314713074,-0.009715144937818998,0.008119821845495423,0,70,255.0,255.0,255.0
336,16.8,-1.4972158260807702,5.474517157559316,-15.021514369905178,-0.17019926585887646,0.6221193028385011,-1.026061451230841,0.004308976734384313,-0.008573328400530917,0.009496901440571668,0,70,255.0,255.0,255.0
337,16.85,-1.5057208797197048,5.505612881797632,-15.072804997556757,-0.17001241103666548,0.6217191818319067,-1.0255521791689355,0.003165216154055551,-0.007431511863242835,0.010873981035647911,0,70,255.0,255.0,255.0
338,16.900000000000002,-1.514218020318254,5.536690027256289,-15.124068440255746,-0.1698827442434709,0.6213761516521767,-1.0249740531272762,0.0020214555737267893,-0.006289695325954754,0.012251060630724156,0,70,255.0,255.0,255.0
339,16.95,-1.5227101072778684,5.5677514484766295,-15.175301255303152,-0.16981026547929282,0.6210902122993113,-1.024327073105863,0.0008776949933981086,-0.005147878788666754,0.013628140225800302,0,70,255.0,255.0,255.0
340,17.0,-1.5312,5.5988,-15.2265,-0.16979497474413108,0.6208613637733102,-1.0236112391046963,-0.0002660655869295425,-0.004006062251377784,0.015005219820874771,0,70,255.0,255.0,255.0
341,17.05,-1.5396896248533052,5.629837339398867,-15.277661534257204,-0.169780890070378,0.6206177879417148,-1.0228447077184022,0.0008294525370532368,-0.0057369710124355565,0.015656035630895113,0,70,255.0,255.0,255.0
342,17.1,-1.548177176075268,5.660860336370204,-15.328783928425334,-0.16971202949042577,0.6202876666720667,-1.022045635541607,0.001924970661036016,-0.007467879773493329,0.016306851440915458,0,70,255.0,255.0,255.0
343,17.150000000000002,-1.556659914870578,5.691864663642108,-15.379865555464859,-0.16958839300427436,0.6198709999643657,-1.0212140225743105,0.0030204887850187956,-0.0091987885345511,0.0169576672509358,0,70,255.0,255.0,255.0
344,17.2,-1.565135102443925,5.722845993942672,-15.430904788336253,-0.1694099806119239,0.6193677878186116,-1.0203498688165131,0.0041160069090014975,-0.010929697295608751,0.017608483060956096,0,70,255.0,255.0,255.0
345,17.25,-1.5736,5.7538,-15.4819,-0.16917679231337426,0.6187780302348047,-1.0194531742682147,0.005211525032984499,-0.012660606056670076,0.01825929887098532,0,70,255.0,255.0,255.0
346,17.3,-1.5820528745060092,5.784723084845214,-15.532849893066004,-0.16894917385961478,0.6181455453946448,-1.0185437178955448,0.0038932131173942154,-0.012638787549728647,0.018118956035812414,0,70,255.0,255.0,255.0
347,17.35,-1.5904960159792247,5.815614572721555,-15.583754488741917,-0.16878747100163483,0.6175141514798318,-1.0176412786646334,0.002574901201803932,-0.012616969042787217,0.01797861320063951,0,70,255.0,255.0,255.0
348,17.400000000000002,-1.5989327201994359,5.846474518175288,-15.634614137884832,-0.16869168373943438,0.616883848490366,-1.0167458565754806,0.001256589286213649,-0.012595150535845789,0.017838270365466608,0,70,255.0,255.0,255.0
349,17.45,-1.6073662829464308,5.877302975752678,-15.685429191351826,-0.16866181207301348,0.6162546364262472,-1.015857451628087,-6.172262937654063e-05,-0.012573332028904361,0.017697927530293714,0,70,255.0,255.0,255.0
350,17.5,-1.6158,5.9081,-15.7362,-0.16869785600237203,0.6156265152874755,-1.0149760638224514,-0.0013800345449666018,-0.012551513521969149,0.01755758469512081,0,70,255.0,255.0,255.0
351,17.55,-1.624235677122659,5.938865521220277,-15.786926093478783,-0.16871041449116123,0.6149920304797095,-1.014052420699428,0.0008776949933986134,-0.012827878788666251,0.019388140225817477,0,70,255.0,255.0,255.0
352,17.6,-1.632669160007834,5.969598972743583,-15.837603716607001,-0.16861008650303216,0.6143437274086089,-1.0130372497998696,0.0031354245317638287,-0.013104244055363354,0.021218695756514146,0,70,255.0,255.0,255.0
353,17.650000000000002,-1.6410948043316804,6.00029966365675,-15.88822829299583,-0.16839687203798484,0.6136816060741732,-1.0119305511237766,0.005393154070129043,-0.013380609322060456,0.023049251287210814,0,70,255.0,255.0,255.0
354,17.7,-1.6495069657703503,6.03096690304661,-15.938795246256436,-0.16807077109601928,0.6130056664764029,-1.0107323246711486,0.007650883608494098,-0.013656974588757538,0.024879806817907354,0,70,255.0,255.0,255.0
355,17.75,-1.6579,6.0616,-15.9893,-0.16763178367713544,0.6123159086152975,-1.0094425704419858,0.009908613146858869,-0.01393333985545997,0.026710362348607575,0,70,255.0,255.0,255.0
356,17.8,-1.6662700170033555,6.0921980302736785,-16.039738533018866,-0.16718516817573914,0.6115983326865205,-1.0080945993067463,0.007956006908992268,-0.014769697295619201,0.027208483060973884,0,70,255.0,255.0,255.0
357,17.85,-1.674620143989439,6.12275913630412,-16.090109044830083,-0.1668361829862362,0.6108389388857356,-1.0067217221358884,0.00600340067112567,-0.01560605473577843,0.02770660377334019,0,70,255.0,255.0,255.0
358,17.900000000000002,-1.6829552624738444,6.15328122719772,-16.140410290131864,-0.16658482810862657,0.6100377272129427,-1.0053239389294122,0.004050794433259069,-0.016442412175937664,0.0282047244857065,0,70,255.0,255.0,255.0
359,17.95,-1.691280253972166,6.18376221206088,-16.190641023622426,-0.1664311035429103,0.6091946976681418,-1.0039012496873179,0.0020981881953926083,-0.017278769616096833,0.02870284519807277,0,70,255.0,255.0,255.0
360,18.0,-1.6996,6.2142,-16.2408,-0.16637500928908733,0.6083098502513329,-1.0024536544096048,0.00014558195752556458,-0.018115127056260505,0.02920096591044974,0,70,255.0,255.0,255.0
361,18.05,-1.7079178548639187,6.244592757685009,-16.290886174445752,-0.1663249128058835,0.607398638774204,-1.000993182073587,0.00185827737062765,-0.018333332028894138,0.02921792753026935,0,70,255.0,255.0,255.0
362,18.1,-1.7162310640344112,6.274939682039944,-16.34089930407268,-0.16618918155202456,0.6064765170484434,-0.9995318616565778,0.0035709727837297356,-0.018551537001527767,0.029234889150088962,0,70,255.0,255.0,255.0
363,18.150000000000002,-1.7245353457729438,6.305240227552376,-16.390839346476728,-0.16596781552751053,0.6055434850740512,-0.9980696931585777,0.005283668196831821,-0.0187697419741614,0.029251850769908574,0,70,255.0,255.0,255.0
364,18.2,-1.7328264183409843,6.335493848709871,-16.44070625925385,-0.1656608147323414,0.6045995428510273,-0.996606676579587,0.006996363609933784,-0.018987946946795016,0.029268812389728182,0,70,255.0,255.0,255.0
365,18.25,-1.7411,6.3657,-16.4905,-0.16526817916651718,0.6036446903793716,-0.9951428119196051,0.008709059023036092,-0.01920615191943309,0.02928577400954957,0,70,255.0,255.0,255.0
366,18.3,-1.74935296354097,6.3958581389862905,-16.540219969198134,-0.16485918060072882,0.6026791122166667,-0.9936446723989172,0.007650883608498512,-0.01941697458876366,0.030639806817962186,0,70,255.0,255.0,255.0
367,18.35,-1.7575867998729189,6.42596773553611,-16.589863338879223,-0.1645030908056673,0.6017029929204952,-0.9920788312378088,0.006592708193960932,-0.019627797258094232,0.0319938396263748,0,70,255.0,255.0,255.0
368,18.400000000000002,-1.7658041544343823,6.456028262592784,-16.63942672396124,-0.1641999097813327,0.6007163324908573,-0.9904452884362797,0.0055345327794233505,-0.019838619927424802,0.03334787243478742,0,70,255.0,255.0,255.0
369,18.45,-1.774007672663897,6.486039193099637,-16.68890673936217,-0.16394963752772498,0.5997191309277528,-0.9887440439943302,0.004476357364885845,-0.02004944259675536,0.03470190524319994,0,70,255.0,255.0,255.0
370,18.5,-1.7822,6.516,-16.7383,-0.1637522740448441,0.5987113882311818,-0.9869750979119599,0.003418181950349375,-0.02026026526608593,0.03605593805161522,0,70,255.0,255.0,255.0
371,18.55,-1.7903830909722023,6.545909886369831,-16.787603548761723,-0.16356636479120057,0.597676912359127,-0.985164128330718,0.004018188195392467,-0.021118769616106384,0.03638284519806146,0,70,255.0,255.0,255.0
372,18.6,-1.7985561364739162,6.575766975815623,-16.83681614041045,-0.16335045522530484,0.596599511269571,-0.9833368133921537,0.004618194440435559,-0.021977273966126833,0.03670975234450769,0,70,255.0,255.0,255.0
373,18.650000000000002,-1.8067176364895288,6.6055691220764965,-16.885936957678318,-0.163104545347157,0.5954791849625142,-0.9814931530962672,0.0052182006854786505,-0.022835778316147283,0.03703665949095393,0,70,255.0,255.0,255.0
374,18.7,-1.814866091003427,6.635314178891581,-16.934965183297454,-0.162828635156757,0.5943159334379564,-0.9796331474430584,0.005818206930521699,-0.023694282666167674,0.03736356663740014,0,70,255.0,255.0,255.0
375,18.75,-1.823,6.665,-16.9839,-0.1625227246541048,0.5931097566958976,-0.9777567964325272,0.006418213175565013,-0.02455278701618724,0.03769047378384638,0,70,255.0,255.0,255.0
376,18.8,-1.8311178725702217,6.694624715534387,-17.03274023575498,-0.16218736023446745,0.5918772383468233,-0.9758428142781901,0.006996363609929243,-0.024747946946784085,0.03886881238963779,0,70,255.0,255.0,255.0
377,18.85,-1.8392182542314182,6.724187561201408,-17.081483299478982,-0.16182308829311187,0.5906349620012191,-0.9738699151935634,0.007574514044293473,-0.02494310687738093,0.0400471509954292,0,70,255.0,255.0,255.0
378,18.900000000000002,-1.8472996996075042,6.753688049101235,-17.130126245325496,-0.1614299088300381,0.5893829276590852,-0.9718380991786472,0.008152664478657702,-0.02513826680797778,0.04122548960122062,0,70,255.0,255.0,255.0
379,18.95,-1.8553607633223932,6.78312569133404,-17.178666127448007,-0.16100782184524612,0.5881211353204214,-0.9697473662334414,0.008730814913021892,-0.025333426738574614,0.04240382820701195,0,70,255.0,255.0,255.0
380,19.0,-1.8634,6.8125,-17.2271,-0.1605568273387359,0.5868495849852277,-0.9675977163579459,0.009308965347386122,-0.02552858666917235,0.04358216681281135,0,70,255.0,255.0,255.0
381,19.05,-1.8714166187469121,6.841810451492622,-17.275425108218368,-0.16011619427092913,0.5855661342535794,-0.9654006145565444,0.008316357364885927,-0.025809442596758995,0.04430190524324901,0,70,255.0,255.0,255.0
382,19.1,-1.8794124466004118,6.871056379378753,-17.323639461673633,-0.1597251916022473,0.5842686407255517,-0.9631675258336209,0.00732374938238573,-0.02609029852434564,0.04502164367368666,0,70,255.0,255.0,255.0
383,19.150000000000002,-1.8873899650804558,6.900237081518572,-17.371741261019707,-0.15938381933269052,0.5829571044011448,-0.9608984501891756,0.006331141399885534,-0.026371154451932288,0.04574138210412432,0,70,255.0,255.0,255.0
384,19.200000000000003,-1.8953516557069998,6.9293518557722615,-17.419728706910522,-0.15909207746225873,0.5816315252803584,-0.9585933876232083,0.005338533417385338,-0.026652010379518937,0.04646112053456197,0,70,255.0,255.0,255.0
385,19.25,-1.9033,6.9584,-17.4676,-0.158849965990952,0.5802919033631929,-0.9562523381357196,0.004345925434885656,-0.026932866307109116,0.04718085896500046,0,70,255.0,255.0,255.0
386,19.3,-1.911236452442131,6.987380678495127,-17.51535373137155,-0.15859586268181677,0.5789302246388608,-0.9538987274956584,0.005818206930522128,-0.027534282666176156,0.046963566637445275,0,70,255.0,255.0,255.0
387,19.35,-1.9191583593669355,7.016292521283588,-17.562990053826507,-0.1582681452978998,0.5775384750965752,-0.9515559814719751,0.007290488426158601,-0.028135699025243193,0.04674627430989008,0,70,255.0,255.0,255.0
388,19.400000000000002,-1.9270620400706748,7.045134024824486,-17.610509510595687,-0.15786681383920093,0.5761166547363364,-0.9492241000646694,0.008762769921795074,-0.028737115384310234,0.0465289819823349,0,70,255.0,255.0,255.0
389,19.450000000000003,-1.9349438138496093,7.073903685576922,-17.657912644909917,-0.15739186830572025,0.5746647635581442,-0.9469030832737414,0.010235051417431546,-0.029338531743377274,0.046311689654779706,0,70,255.0,255.0,255.0
390,19.5,-1.9428,7.1026,-17.7052,-0.1568433086974578,0.5731828015619987,-0.9445929310991916,0.01170733291306747,-0.02993994810244427,0.046094397327223646,0,70,255.0,255.0,255.0
391,19.55,-1.9506279714845651,7.131221234526874,-17.752371166295436,-0.15628435500180549,0.5716569671909736,-0.942236475460836,0.01065081491302567,-0.031093426738561386,0.048163828207002296,0,70,255.0,255.0,255.0
392,19.6,-1.9584293159318475,7.159764735486902,-17.799421923020354,-0.15577822720615522,0.5700734588881426,-0.9397765482784913,0.009594296912983871,-0.0322469053746785,0.050233259086780946,0,70,255.0,255.0,255.0
393,19.650000000000002,-1.9662066746368476,7.188227619183492,-17.846347096597555,-0.15532492531050704,0.5684322766535056,-0.9372131495521578,0.008537778912942072,-0.03340038401079562,0.0523026899665596,0,70,255.0,255.0,255.0
394,19.700000000000003,-1.9739626888945652,7.216607001920057,-17.89314151344984,-0.154924449314861,0.5667334204870629,-0.9345462792818353,0.007481260912900274,-0.034553862646912736,0.05437212084633825,0,70,255.0,255.0,255.0
395,19.75,-1.9817,7.2449,-17.9398,-0.15457679921921702,0.5649768903888145,-0.9317759374675241,0.006424742912858772,-0.03570734128302977,0.05644155172611498,0,70,255.0,255.0,255.0
396,19.8,-1.9894204616196098,7.273104783397382,-17.986318403446717,-0.1542347173109608,0.5632259065972507,-0.928963370661006,0.007258533417389679,-0.034332010379519474,0.05606112053460705,0,70,255.0,255.0,255.0
397,19.85,-1.9971227769056759,7.301223736768812,-18.032696654092096,-0.15385094587747805,0.5615436893508625,-0.9261698254140632,0.008092323921920587,-0.03295667947600918,0.055680689343099124,0,70,255.0,255.0,255.0
398,19.900000000000002,-2.0048048613819374,7.329260298441555,-18.07893570301412,-0.15342548491876873,0.5599302386496497,-0.923395301726696,0.008926114426451495,-0.03158134857249889,0.05530025815159119,0,70,255.0,255.0,255.0
399,19.950000000000003,-2.0124646305721328,7.357217906742864,-18.12503650129076,-0.15295833443483287,0.5583855544936125,-0.9206397995989041,0.009759904930982402,-0.030206017668988595,0.05491982696008326,0,70,255.0,255.0,255.0
400,20.0,-2.0201,7.3851,-18.171,-0.1524494944256705,0.5569096368827511,-0.9179033190306878,0.010593695435513917,-0.02883068676547751,0.05453939576857714,0,70,255.0,255.0,255.0
401,20.05,-2.0277093820369965,7.412908431883608,-18.216826419917705,-0.15192877575434718,0.555407406420029,-0.9151420418951061,0.010235051417418579,-0.031258531743407085,0.05591168965468933,0,70,255.0,255.0,255.0
402,20.1,-2.0352931764454496,7.4406387174378565,-18.262513060611273,-0.1514259892839286,0.5537837837084104,-0.9123121500652187,0.00987640739932324,-0.033686376721336654,0.057283983540801525,0,70,255.0,255.0,255.0
403,20.150000000000002,-2.042852279835405,7.468284787050301,-18.30805649134599,-0.15094113501441483,0.5520387687478951,-0.9094136435410258,0.009517763381227902,-0.03611422169926623,0.05865627742691372,0,70,255.0,255.0,255.0
404,20.200000000000003,-2.0503875888169065,7.4958405711084986,-18.35345328138714,-0.15047421294580582,0.5501723615384836,-0.9064465223225273,0.009159119363132564,-0.0385420666771958,0.060028571313025914,0,70,255.0,255.0,255.0
405,20.25,-2.0579,7.5233,-18.3987,-0.15002522307810162,0.5481845620801757,-0.9034107864097233,0.008800475345037029,-0.0409699116551252,0.06140086519914245,0,70,255.0,255.0,255.0
406,20.3,-2.065390010232404,7.550658289068194,-18.443793516882472,-0.14957017967165306,0.546152467722625,-0.9003244617585849,0.009401260912904528,-0.040313862646899415,0.062052120846388635,0,70,255.0,255.0,255.0
407,20.35,-2.072856517312526,7.57791579347977,-18.488731903462824,-0.14908509698681116,0.5441531758154857,-0.8972055743250843,0.010002046480772027,-0.03965781363867363,0.06270337649363482,0,70,255.0,255.0,255.0
408,20.400000000000002,-2.0802980192764453,7.60507415335725,-18.533513531601937,-0.14856997502357586,0.5421866863587577,-0.8940541241092215,0.010602832048639524,-0.03900176463044784,0.063354632140881,0,70,255.0,255.0,255.0
409,20.450000000000003,-2.0877130141602436,7.632135008823154,-18.578136773160704,-0.14802481378194718,0.5402529993524409,-0.8908701111109961,0.011203617616507023,-0.03834571562222205,0.06400588778812719,0,70,255.0,255.0,255.0
410,20.5,-2.0951,7.6591,-18.6226,-0.14744961326192518,0.5383521147965354,-0.8876535353304088,0.011804403184375367,-0.03768966661399897,0.06465714343537687,0,70,255.0,255.0,255.0
411,20.55,-2.102457777033388,7.68597041184362,-18.666901912552426,-0.1468625055590411,0.5364627226894616,-0.8844241110705228,0.011679904930987204,-0.037886017668953366,0.06451982696006216,0,70,255.0,255.0,255.0
412,20.6,-2.109786354304449,7.712746108643068,-18.711042525537447,-0.14628162276882645,0.5345635130296401,-0.8812015526344025,0.011555406677599042,-0.03808236872390776,0.06438251048474743,0,70,255.0,255.0,255.0
413,20.650000000000002,-2.1170860430588156,7.739426599520706,-18.75502218224626,-0.14570696489128118,0.5326544858170708,-0.877985860022048,0.011430908424210878,-0.03827871977886216,0.06424519400943271,0,70,255.0,255.0,255.0
414,20.700000000000003,-2.1243571545421216,7.7660113935988955,-18.798841225970047,-0.14513853192640533,0.5307356410517537,-0.8747770332334591,0.011306410170822716,-0.03847507083381655,0.064107877534118,0,70,255.0,255.0,255.0
415,20.75,-2.1316,7.7925,-18.8425,-0.14457632387419897,0.5288069787336892,-0.8715750722686364,0.01118191191743434,-0.038671421888772706,0.06397056105880417,0,70,255.0,255.0,255.0
416,20.8,-2.1388148816340444,7.818891263557329,-18.88599803290784,-0.1440197980921849,0.5268286415195392,-0.8683310939593408,0.011079119363127752,-0.040462066677225496,0.06578857131301492,0,70,255.0,255.0,255.0
417,20.85,-2.1460020654696805,7.845181371947965,-18.929331594387392,-0.14346841193788618,0.5247607720659666,-0.8649962151373348,0.010976326808821166,-0.04225271146567829,0.06760658156722568,0,70,255.0,255.0,255.0
418,20.900000000000002,-2.1531618084882953,7.871365848559936,-18.97249613941303,-0.1429221654113028,0.5226033703729713,-0.8615704358026182,0.010873534254514578,-0.04404335625413108,0.06942459182143644,0,70,255.0,255.0,255.0
419,20.950000000000003,-2.1602943676712734,7.8974402167812725,-19.015487122959108,-0.1423810585124347,0.5203564364405534,-0.8580537559551911,0.010770741700207991,-0.04583400104258387,0.0712426020756472,0,70,255.0,255.0,255.0
420,21.0,-2.1674,7.9234,-19.0583,-0.141845091241282,0.5180199702687132,-0.8544461755950536,0.0106679491459023,-0.04762464583103565,0.07306061232986139,0,70,255.0,255.0,255.0
421,21.05,-2.174478696430436,7.949242133927068,-19.100930755816233,-0.14129830207222155,0.5156787112323816,-0.8507795130921026,0.011203617616516278,-0.04602571562222264,0.07360588778817566,0,70,255.0,255.0,255.0
422,21.1,-2.18152938381683,7.974969203565079,-19.143377496912997,-0.14072472947963036,0.5134173987064908,-0.8470855868162359,0.011739286087130256,-0.04442678541340963,0.07415116324648993,0,70,255.0,255.0,255.0
423,21.150000000000002,-2.1885507229880075,8.000585206239558,-19.185638860101644,-0.1401243734635085,0.5112360326910407,-0.8433643967674536,0.012274954557744234,-0.04282785520459662,0.0746964387048042,0,70,255.0,255.0,255.0
424,21.200000000000003,-2.195541374772789,8.026094139276026,-19.22771348219353,-0.13949723402385591,0.509134613186031,-0.8396159429457555,0.012810623028358212,-0.04122892499578361,0.07524171416311848,0,70,255.0,255.0,255.0
425,21.25,-2.2025,8.0515,-19.2696,-0.13884331116067267,0.5071131401914623,-0.8358402253511419,0.013346291498972374,-0.0396299947869716,0.07578698962143271,0,70,255.0,255.0,255.0
426,21.3,-2.209425532644214,8.076805000734405,-19.311297343827235,-0.1381789936189279,0.5050645135509423,-0.8320548536722537,0.013226410170817802,-0.042315070833825394,0.07562787753409025,0,70,255.0,255.0,255.0
427,21.35,-2.216317999263,8.102004213791723,-19.352805617960637,-0.13752067014359085,0.5028816331080797,-0.8282774375977328,0.01310652884266323,-0.04500014688067918,0.0754687654467478,0,70,255.0,255.0,255.0
428,21.400000000000002,-2.22317769955968,8.127090926481841,-19.394125220180417,-0.13686834073466156,0.5005644988628742,-0.824507977127579,0.01298664751450866,-0.047685222927532966,0.07530965335940536,0,70,255.0,255.0,255.0
429,21.450000000000003,-2.2300049332375727,8.15205842611464,-19.4352565482668,-0.13622200539214,0.4981131108153263,-0.8207464722617921,0.012866766186354088,-0.05037029897438676,0.0751505412720629,0,70,255.0,255.0,255.0
430,21.5,-2.2368,8.1769,-19.4762,-0.13558166411602618,0.4955274689654358,-0.8169929230003727,0.012746884858199525,-0.053055375021239914,0.07499142918471868,0,70,255.0,255.0,255.0
431,21.55,-2.2435631729927112,8.201610663135321,-19.516955068874832,-0.1349457234520661,0.49291123456384056,-0.8131930722188639,0.012690741700203833,-0.05159400104256935,0.07700260207563442,0,70,255.0,255.0,255.0
432,21.6,-2.250294619131172,8.226192341268034,-19.557517631244476,-0.13431258994600578,0.4903680688611788,-0.8092926627928092,0.01263459854220814,-0.05013262706389879,0.07901377496655014,0,70,255.0,255.0,255.0
433,21.650000000000002,-2.2569944787732767,8.250648687833088,-19.597882659176705,-0.13368226359784527,0.4878979718574506,-0.8052916947222087,0.012578455384212447,-0.04867125308522822,0.08102494785746588,0,70,255.0,255.0,255.0
434,21.700000000000003,-2.2636628922769217,8.274983356265428,-19.638045124739293,-0.13305474440758452,0.48550094355265594,-0.8011901680070624,0.012522312226216756,-0.047209879106557655,0.08303612074838161,0,70,255.0,255.0,255.0
435,21.75,-2.2703,8.2992,-19.678,-0.13243003237522363,0.4831769839467949,-0.7969880826473709,0.012466169068221289,-0.045748505127887196,0.08504729363929453,0,70,255.0,255.0,255.0
436,21.8,-2.276905775384943,8.323301146724319,-19.717743180673434,-0.1317981125728089,0.480858548193703,-0.792740857452311,0.012810623028367156,-0.04698892499578832,0.0848417141630959,0,70,255.0,255.0,255.0
437,21.85,-2.2834795242123143,8.347284821136148,-19.757274257061464,-0.1311489700723869,0.47847809144721604,-0.7885039112310612,0.013155076988513025,-0.048229344863689454,0.08463613468689725,0,70,255.0,255.0,255.0
438,21.900000000000002,-2.290020385347215,8.371147922185818,-19.796593743112773,-0.13048260487395758,0.476035613707334,-0.7842772439836212,0.013499530948658892,-0.04946976473159058,0.08443055521069862,0,70,255.0,255.0,255.0
439,21.950000000000003,-2.296527497654744,8.394887348823659,-19.835702152776054,-0.12979901697752097,0.4735311149740569,-0.7800608557099912,0.01384398490880476,-0.050710184599491705,0.08422497573449997,0,70,255.0,255.0,255.0
440,22.0,-2.303,8.4185,-19.8746,-0.12909820638307712,0.470964595247385,-0.7758547464101713,0.014188438868950826,-0.05195060446739319,0.08401939625830757,0,70,255.0,255.0,255.0
441,22.05,-2.309436925467519,8.441983149967408,-19.913287408431433,-0.1283738262566946,0.46835857266133973,-0.7716354979719091,0.01478676618634954,-0.05229029897441624,0.08475054127217875,0,70,255.0,255.0,255.0
442,22.1,-2.3158368840195718,8.465335574187378,-19.95176294050968,-0.12761952976444213,0.46573556534994326,-0.7673796922829532,0.015385093503748254,-0.0526299934814393,0.08548168628604993,0,70,255.0,255.0,255.0
443,22.150000000000002,-2.3221983798378654,8.488556423423645,-19.990024768372216,-0.12683531690631977,0.46309557331319573,-0.7630873293433039,0.015983420821146968,-0.05296968798846235,0.0862128312999211,0,70,255.0,255.0,255.0
444,22.200000000000003,-2.328519917104106,8.511644848439943,-20.028071064156503,-0.12602118768232742,0.460438596551097,-0.7587584091529611,0.016581748138545682,-0.0533093824954854,0.08694397631379229,0,70,255.0,255.0,255.0
445,22.25,-2.3348,8.5346,-20.0659,-0.12517714209246525,0.4577646350636473,-0.7543929317119249,0.017180075455943244,-0.053649077002509316,0.08767512132766342,0,70,255.0,255.0,255.0
446,22.3,-2.3410377227449826,8.557420653406052,-20.103509585600847,-0.12433858240041147,0.45505116116092187,-0.7499811506600259,0.016362312226207397,-0.05488987910650602,0.08879612074829703,0,70,255.0,255.0,255.0
447,22.35,-2.3472345397093997,8.580104082114339,-20.14089718089982,-0.12354091086984448,0.4522756471529966,-0.745513319637095,0.015544548996471551,-0.05613068121050272,0.08991712016893064,0,70,255.0,255.0,255.0
448,22.400000000000002,-2.353392495301325,8.602647184119599,-20.178059983398374,-0.1227841275007643,0.44943809303987153,-0.7409894386431326,0.014726785766735705,-0.05737148331449943,0.09103811958956425,0,70,255.0,255.0,255.0
449,22.450000000000003,-2.359513633928834,8.625046857416574,-20.21499519059795,-0.1220682322931709,0.4465384988215466,-0.7364095076781385,0.013909022536999858,-0.05861228541849613,0.09215911901019787,0,70,255.0,255.0,255.0
450,22.5,-2.3656,8.6473,-20.2517,-0.12139322524706435,0.443576864498022,-0.731773526742113,0.013091259307263736,-0.059853087522491855,0.09328011843083317,0,70,255.0,255.0,255.0
451,22.55,-2.3716529835525524,8.669404636408382,-20.28817184916519,-0.12071984414166241,0.440620782694972,-0.7270958993879801,0.013843984908813655,-0.0583901845995072,0.09382497573448136,0,70,255.0,255.0,255.0
452,22.6,-2.3776713571428316,8.691363297355267,-20.324409135891045,-0.12000882675618296,0.4377378460380712,-0.7223910291686648,0.014596710510363575,-0.05692728167652255,0.09436983303812953,0,70,255.0,255.0,255.0
453,22.650000000000002,-2.383653238956836,8.71317964009796,-20.360410498034305,-0.11926017309062603,0.4349280545273197,-0.717658916084167,0.015349436111913493,-0.055464378753537893,0.09491469034177771,0,70,255.0,255.0,255.0
454,22.700000000000003,-2.38959674718056,8.734857321893768,-20.39617457345171,-0.11847388314499159,0.4321914081627174,-0.7128995601344869,0.016102161713463414,-0.054001475830553244,0.09545954764542589,0,70,255.0,255.0,255.0
455,22.75,-2.3955,8.7564,-20.4317,-0.11764995691927972,0.42952790694426446,-0.7081129613196246,0.0168548873150135,-0.05253857290756869,0.09600440494907403,0,70,255.0,255.0,255.0
456,22.8,-2.4013615430448105,8.777809600960417,-20.466985417738393,-0.11681404103294053,0.4268337080591882,-0.7032992517880519,0.01658174813855375,-0.055229382495481476,0.09654397631383774,0,70,255.0,255.0,255.0
457,22.85,-2.407181631719275,8.799081128464595,-20.502029475536002,-0.11599178210542432,0.4240049686947162,-0.6984585636882408,0.016308608962094,-0.05792019208339426,0.09708354767860145,0,70,255.0,255.0,255.0
458,22.900000000000002,-2.4129609488713335,8.820207855488567,-20.536830824464413,-0.11518318013673111,0.4210416888508487,-0.6935908970201915,0.01603546978563425,-0.06061100167130704,0.09762311904336515,0,70,255.0,255.0,255.0
459,22.950000000000003,-2.4187001773489283,8.841183055008358,-20.57138811559522,-0.11438823512686087,0.4179438685275854,-0.688696251783904,0.015762330609174497,-0.06330181125921983,0.09816269040812887,0,70,255.0,255.0,255.0
460,23.0,-2.4244,8.862,-20.6057,-0.11360694707581369,0.4147115077249268,-0.6837746279793788,0.015489191432715432,-0.0659926208471342,0.09870226177289254,0,70,255.0,255.0,255.0
461,23.05,-2.4300608442682066,8.882653759749951,-20.639764879881238,-0.11282399172657112,0.4114523850682855,-0.678811093459802,0.01582902253698693,-0.06437228541851707,0.09983911901018062,0,70,255.0,255.0,255.0
462,23.1,-2.43568211598007,8.903146588786353,-20.67358016196495,-0.11202404482211496,0.408274279183075,-0.6737907160783606,0.01616885364125843,-0.06275194998989994,0.10097597624746871,0,70,255.0,255.0,255.0
463,23.150000000000002,-2.4412629655578315,8.92348253794778,-20.707143004108044,-0.11120710636244525,0.4051771900692954,-0.6687134958350549,0.016508684745529925,-0.06113161456128282,0.1021128334847568,0,70,255.0,255.0,255.0
464,23.200000000000003,-2.446802543423728,8.943665658072808,-20.740450564167425,-0.11037317634756195,0.4021611177269467,-0.6635794327298848,0.016848515849801425,-0.05951127913266569,0.10324969072204489,0,70,255.0,255.0,255.0
465,23.25,-2.4523,8.9637,-20.7735,-0.10952225477746516,0.39922606215602896,-0.6583885267628506,0.017188346954072564,-0.05789094370404957,0.10438654795933466,0,70,255.0,255.0,255.0
466,23.3,-2.4577542798823644,8.983588160039785,-20.806288662736655,-0.10864199206077664,0.39628475166766414,-0.6531523743727321,0.018022161713467322,-0.05976147583053993,0.1050595476454042,0,70,255.0,255.0,255.0
467,23.35,-2.463163504360445,9.003326916389993,-20.8388146766042,-0.10772003860611841,0.39324991457297487,-0.64788257199831,0.01885597647286208,-0.061632007957030284,0.10573254733147375,0,70,255.0,255.0,255.0
468,23.400000000000002,-2.468525588897344,9.02291159272031,-20.87107635910342,-0.10675639441349041,0.39012155087196104,-0.6425791196395846,0.01968979123225684,-0.06350254008352064,0.10640554701754329,0,70,255.0,255.0,255.0
469,23.450000000000003,-2.473838448956162,9.04233751270042,-20.90307202773509,-0.10575105948289269,0.3868996605646227,-0.6372420172965556,0.020523605991651598,-0.065373072210011,0.10707854670361283,0,70,255.0,255.0,255.0
470,23.5,-2.4791,9.0616,-20.9348,-0.1047040338143253,0.3835842436509601,-0.6318712649692235,0.02135742075104652,-0.06724360433650123,0.10775154638968765,0,70,255.0,255.0,255.0
471,23.55,-2.4843092362023365,9.080695200090911,-20.966258869172133,-0.10368004003031976,0.38022460826106724,-0.6264834090492786,0.019602330609174486,-0.06714181125921126,0.10776269040810824,0,70,255.0,255.0,255.0
472,23.6,-2.48946946657815,9.099622545653672,-20.997448331618248,-0.10274380075340783,0.3768700625250389,-0.6210949959284126,0.017847240467302454,-0.06704001818192129,0.10777383442652884,0,70,255.0,255.0,255.0
473,23.650000000000002,-2.4945850788527957,9.118382291170978,-21.028368359478293,-0.1018953159835895,0.37352060644287505,-0.6157060256066255,0.016092150325430425,-0.06693822510463132,0.10778497844494943,0,70,255.0,255.0,255.0
474,23.700000000000003,-2.4996604607516275,9.136974691125525,-21.059018924892225,-0.10113458572086476,0.37017624001457566,-0.6103164980839174,0.014337060183558393,-0.06683643202734135,0.10779612246337003,0,70,255.0,255.0,255.0
475,23.75,-2.5047,9.1554,-21.0894,-0.10046160996523369,0.36683696324014103,-0.6049264133602886,0.012581970041686152,-0.06673463895005316,0.10780726648179506,0,70,255.0,255.0,255.0
476,23.8,-2.5097063753082898,9.173658239596577,-21.119511060574816,-0.0997738478179466,0.3634888152880717,-0.5995059894301912,0.014928515849797075,-0.06719127913271716,0.10900969072210051,0,70,255.0,255.0,255.0
477,23.85,-2.5146754293269553,9.191748500995322,-21.14934959692282,-0.09896875838025397,0.36011783532686925,-0.5940254442880785,0.017275061657907997,-0.06764791931538118,0.11021211496240596,0,70,255.0,255.0,255.0
478,23.900000000000002,-2.519601295691475,9.209669642595777,-21.178912602983424,-0.09804634165215577,0.3567240233565335,-0.5884847779339505,0.01962160746601892,-0.06810455949804518,0.11141453920271141,0,70,255.0,255.0,255.0
479,23.950000000000003,-2.5244781080373304,9.227420522797491,-21.208197072696017,-0.09700659763365205,0.3533073793770646,-0.5828839903678071,0.02196815327412984,-0.0685611996807092,0.11261696344301686,0,70,255.0,255.0,255.0
480,24.0,-2.5293,9.245,-21.2372,-0.09584952632474283,0.3498679033884627,-0.577223081589649,0.02431469908224093,-0.06901783986337451,0.11381938768332223,0,70,255.0,255.0,255.0
481,24.05,-2.5340628625645056,9.262407041522781,-21.26591848852862,-0.09468056869789519,0.34641213058662906,-0.5715086332299741,0.022443605991664325,-0.06921307220996775,0.11475854670366435,0,70,255.0,255.0,255.0
482,24.1,-2.538769616114032,9.27964105036504,-21.29435008069048,-0.09360516572557637,0.3429465961674658,-0.5657472269192824,0.020572512901087716,-0.069408304556561,0.11569770572400649,0,70,255.0,255.0,255.0
483,24.150000000000002,-2.5434249383813055,9.296701538445905,-21.32249242858803,-0.09262331740778638,0.3394713001309729,-0.5599388626575733,0.018701419810511107,-0.06960353690315425,0.11663686474434862,0,70,255.0,255.0,255.0
484,24.200000000000003,-2.548033507099053,9.313588017684514,-21.350343184323723,-0.09173502374452523,0.33598624247715025,-0.5540835404448473,0.0168303267199345,-0.0697987692497475,0.11757602376469074,0,70,255.0,255.0,255.0
485,24.25,-2.5526,9.3303,-21.3779,-0.09094028473579296,0.3324914232059983,-0.5481812602811047,0.014959233629357804,-0.06999400159633984,0.11851518278503193,0,70,255.0,255.0,255.0
486,24.3,-2.5571277744336887,9.34683679431229,-21.405160585310707,-0.09015987739047038,0.32897466236540646,-0.5422354776498952,0.016257060183545155,-0.07067643202733251,0.11931612246334568,0,70,255.0,255.0,255.0
487,24.35,-2.5616149062169185,9.363196897544515,-21.43212288031526,-0.08931457871743842,0.32542378000326494,-0.5362496480347699,0.017554886737732502,-0.07135886245832516,0.12011706214165943,0,70,255.0,255.0,255.0
488,24.400000000000002,-2.5660581507833045,9.379378603620593,-21.458784882664453,-0.0884043887166971,0.32183877611957384,-0.5302237714357291,0.018852713291919853,-0.07204129288931782,0.12091800181997317,0,70,255.0,255.0,255.0
489,24.450000000000003,-2.57045426356646,9.395380206464447,-21.4851445900091,-0.0874293073882464,0.31821965071433306,-0.5241578478527725,0.020150539846107204,-0.07272372332031049,0.12171894149828692,0,70,255.0,255.0,255.0
490,24.5,-2.5748,9.4112,-21.5112,-0.08638933473208645,0.31456640378754297,-0.5180518772859007,0.021448366400294572,-0.07340615375130444,0.12251988117659973,0,70,255.0,255.0,255.0
491,24.55,-2.57909243970074,9.42683618122805,-21.536949570228547,-0.08530392174022561,0.3108732199517429,-0.5119334561704125,0.021968153274138598,-0.07432119968069754,0.12221696344292655,0,70,255.0,255.0,255.0
492,24.6,-2.583329959018295,9.4422865594569,-21.562393598048484,-0.08419251940467255,0.3071342838194731,-0.5058301809416079,0.022487940147982624,-0.07523624561009064,0.12191404570925339,0,70,255.0,255.0,255.0
493,24.650000000000002,-2.5875112584854794,9.457548847071724,-21.58753284075415,-0.08305512772542731,0.3033495953907337,-0.499742051599487,0.02300772702182665,-0.07615129153948375,0.12161112797558021,0,70,255.0,255.0,255.0
494,24.700000000000003,-2.5916350386351095,9.4726207564577,-21.61236805563988,-0.08189174670248986,0.2995191546655246,-0.4936690681440497,0.023527513895670676,-0.07706633746887684,0.12130821024190704,0,70,255.0,255.0,255.0
495,24.75,-2.5957,9.4875,-21.6369,-0.08070237633586028,0.2956429616438461,-0.4876112305752965,0.02404730076951478,-0.07798138339827121,0.12100529250823433,0,70,255.0,255.0,255.0
496,24.8,-2.5997056667633514,9.502184880775506,-21.661128333775107,-0.07953643564862414,0.29175645782764437,-0.4815026976684719,0.022590326719929554,-0.07747876924979744,0.12333602376474471,0,70,255.0,255.0,255.0
497,24.85,-2.6036548577099037,9.51667606462789,-21.685048327490804,-0.0784433436638673,0.28789508471886627,-0.47527762819882186,0.021133352670344333,-0.07697615510132366,0.1256667550212551,0,70,255.0,255.0,255.0
498,24.900000000000002,-2.6075512152747797,9.530974808092518,-21.708654154318943,-0.07742310038158969,0.2840588423175119,-0.4689360221663462,0.01967637862075911,-0.07647354095284989,0.1279974862777655,0,70,255.0,255.0,255.0
499,24.950000000000003,-2.611398381893104,9.545082367704765,-21.731939987431392,-0.07647570580179136,0.28024773062358116,-0.4624778795710451,0.018219404571173888,-0.07597092680437612,0.13032821753427587,0,70,255.0,255.0,255.0
500,25.0,-2.6152,9.559,-21.7549,-0.07560115992447235,0.2764617496370744,-0.45590320041291893,0.016762430521588212,-0.07546831265590237,0.13265894879078433,0,70,255.0,255.0,255.0
501,25.05,-2.618958493245853,9.572728295669922,-21.777529894671027,-0.07472633566528006,0.2726609487376693,-0.449303753155691,0.0182305398461029,-0.07656372332030152,0.131318941498331,0,70,255.0,255.0,255.0
502,25.1,-2.6226714101420914,9.586265182031546,-21.79983149198831,-0.07377810593986203,0.26880537730504417,-0.44277130626308564,0.019698649170617585,-0.07765913398470066,0.1299789342058777,0,70,255.0,255.0,255.0
503,25.150000000000002,-2.626335080415403,9.599607920558208,-21.82180814197008,-0.07275647074821827,0.2648950353391991,-0.436305859735103,0.021166758495132273,-0.07875454464909981,0.12863892691342438,0,70,255.0,255.0,255.0
504,25.200000000000003,-2.629945833792476,9.612753772723247,-21.843463194634566,-0.07166143009034877,0.2609299228401341,-0.42990741357174306,0.022634867819646957,-0.07984995531349896,0.12729891962097106,0,70,255.0,255.0,255.0
505,25.25,-2.6335,9.6257,-21.8648,-0.07049298396625363,0.2569100398078494,-0.42357596777300616,0.024102977144161986,-0.08094536597789714,0.12595891232851875,0,70,255.0,255.0,255.0
506,25.3,-2.636994760253236,9.638444336544799,-21.885820087540775,-0.06930222169025736,0.25286374722168103,-0.4172022897087475,0.023527513895688093,-0.08090633746883417,0.12898821024182214,0,70,255.0,255.0,255.0
507,25.35,-2.6404307017217334,9.650986407245925,-21.906517704555945,-0.06814023257668479,0.24881940606096584,-0.4106771467488238,0.0229520506472142,-0.0808673089597712,0.13201750815512553,0,70,255.0,255.0,255.0
508,25.400000000000002,-2.643809263063612,9.663326309674654,-21.926885277800732,-0.0670070166255359,0.2447770163257038,-0.4040005388932348,0.022376587398740308,-0.08082828045070824,0.13504680606842892,0,70,255.0,255.0,255.0
509,25.450000000000003,-2.6471318829369936,9.675464141402255,-21.946915234030342,-0.06590257383681072,0.2407365780158949,-0.3971724661419807,0.021801124150266415,-0.08078925194164528,0.13807610398173234,0,70,255.0,255.0,255.0
510,25.5,-2.6504,9.6874,-21.9666,-0.06482690421050932,0.23669809113153947,-0.3901929284950618,0.021225660901792676,-0.08075022343258254,0.14110540189503595,0,70,255.0,255.0,255.0
511,25.55,-2.6536144657412026,9.699133558150882,-21.98593375516587,-0.06374477757368559,0.23263606237561407,-0.3831670880093278,0.022059404571156238,-0.08173092680443134,0.13992821753432058,0,70,255.0,255.0,255.0
512,25.6,-2.6567737829709777,9.710662788984752,-22.0049176897879,-0.06262096375339367,0.22852499845109622,-0.37620010674162957,0.0228931482405198,-0.08271163017628014,0.13875103317360524,0,70,255.0,255.0,255.0
513,25.650000000000002,-2.659875867330151,9.72198524074318,-22.023554746827,-0.06145546274963357,0.22436489935798593,-0.3692919846919671,0.023726891909883367,-0.08369233354812895,0.13757384881288987,0,70,255.0,255.0,255.0
514,25.700000000000003,-2.6629186344595497,9.73309846166774,-22.041847869244062,-0.0602482745624053,0.2201557650962832,-0.3624427218603404,0.02456063557924693,-0.08467303691997775,0.13639666445217452,0,70,255.0,255.0,255.0
515,25.75,-2.6659,9.744,-22.0598,-0.058999399191708934,0.21589759566598837,-0.35565231824674987,0.025394379248610544,-0.08565374029182538,0.13521948009145968,0,70,255.0,255.0,255.0
516,25.8,-2.6688185767819537,9.754687830851674,-22.077412891795753,-0.05775066801500237,0.21161600327585556,-0.34884935825393953,0.024554867819651115,-0.08560995531348477,0.13689891962094897,0,70,255.0,255.0,255.0
517,25.85,-2.6716757663943578,9.765161636815067,-22.094683536292454,-0.05654391240974379,0.20733660013463975,-0.3419624262846548,0.023715356390691687,-0.08556617033514416,0.13857835915043829,0,70,255.0,255.0,255.0
518,25.900000000000002,-2.674473667615785,9.775421527352622,-22.111607734891273,-0.05537913237593317,0.20305938624234104,-0.33499152233889556,0.02287584496173226,-0.08552238535680354,0.14025779867992758,0,70,255.0,255.0,255.0
519,25.950000000000003,-2.6772143792248086,9.785467611926784,-22.128181288993403,-0.05425632791357053,0.1987843615989593,-0.3279366464166618,0.02203633353277283,-0.08547860037846293,0.1419372382094169,0,70,255.0,255.0,255.0
520,26.0,-2.6799,9.7953,-22.1444,-0.053175499022655934,0.19451152620449494,-0.32079779851795415,0.02119682210381335,-0.0854348154001221,0.14361667773890607,0,70,255.0,255.0,255.0
521,26.05,-2.682532027130984,9.804918318442414,-22.160260277651126,-0.05210055036630371,0.19021192452095187,-0.3136114789749367,0.021801124150274895,-0.08654925194159799,0.1438361039817873,0,70,255.0,255.0,255.0
522,26.1,-2.685109551451592,9.814320263754977,-22.175760965042294,-0.050995386607628417,0.18585660101033502,-0.3064141881197752,0.02240542619673644,-0.08766368848307388,0.14405553022466852,0,70,255.0,255.0,255.0
523,26.150000000000002,-2.687631062206708,9.823503049846332,-22.1909015136079,-0.04986000774663004,0.18144555567264437,-0.29920592595246964,0.023009728243197983,-0.08877812502454976,0.14427495646754976,0,70,255.0,255.0,255.0
524,26.200000000000003,-2.690095048641216,9.832463890625124,-22.205681374782337,-0.04869441378330858,0.1769787885078799,-0.29198669247302006,0.023614030289659527,-0.08989256156602565,0.144494382710431,0,70,255.0,255.0,255.0
525,26.25,-2.6925,9.8412,-22.2201,-0.04749860471766414,0.172456299516042,-0.2847564876814268,0.024218332336120973,-0.09100699810750235,0.14471380895331265,0,70,255.0,255.0,255.0
526,26.3,-2.6948445146941116,9.849709295378663,-22.234156397599754,-0.046279130519780144,0.16792029864035443,-0.27748872584629003,0.024560635579238436,-0.0904330369199982,0.14599666445215256,0,70,255.0,255.0,255.0
527,26.35,-2.6971276277992757,9.857992508165026,-22.24784780353838,-0.04504254115974026,0.16341299582404203,-0.2701568212362114,0.0249029388223559,-0.08985907573249403,0.1472795199509925,0,70,255.0,255.0,255.0
528,26.400000000000002,-2.699348483557383,9.866051073262057,-22.261171010677124,-0.043788836637544515,0.15893439106710489,-0.2627607738511906,0.025245242065473364,-0.08928511454498989,0.14856237544983242,0,70,255.0,255.0,255.0
529,26.450000000000003,-2.701506226210327,9.873886425572726,-22.27412281187725,-0.04251801695319289,0.15448448436954293,-0.2553005836912279,0.02558754530859083,-0.08871115335748572,0.14984523094867236,0,70,255.0,255.0,255.0
530,26.5,-2.7036,9.8815,-22.2867,-0.04123008210668549,0.1500632757313565,-0.24777625075632373,0.02592984855170849,-0.0881371921699825,0.1511280864475124,0,70,255.0,255.0,255.0
531,26.55,-2.705629114092569,9.888892500042937,-22.29889973194986,-0.039934927554573445,0.14562688091764384,-0.24020961763990265,0.02587633353277251,-0.08931860037852217,0.15153723820932635,0,70,255.0,255.0,255.0
532,26.6,-2.7075935373513063,9.896061703584925,-22.310720620804187,-0.0386424487534082,0.14113141569350415,-0.23262252693539087,0.02582281851383653,-0.09050000858706184,0.1519463899711403,0,70,255.0,255.0,255.0
533,26.650000000000002,-2.709493403563759,9.903004657105447,-22.322161643683593,-0.03735264570318975,0.1365768800589375,-0.2250149786427884,0.02576930349490055,-0.09168141679560149,0.1523555417329542,0,70,255.0,255.0,255.0
534,26.700000000000003,-2.7113288465174743,9.909718407083979,-22.333221777708665,-0.03606551840391811,0.13196327401394387,-0.21738697276209526,0.02571578847596457,-0.09286282500414116,0.15276469349476815,0,70,255.0,255.0,255.0
535,26.75,-2.7131,9.9162,-22.3439,-0.03478106685559335,0.1272905975585236,-0.20973850929331195,0.025662273457028817,-0.09404423321268074,0.15317384525658229,0,70,255.0,255.0,255.0
536,26.8,-2.714807028935611,9.922447104449597,-22.354195074600824,-0.03350115926192624,0.12259617768905694,-0.20205680359413364,0.025534030289655004,-0.0937325615659827,0.15409438271054565,0,70,255.0,255.0,255.0
537,26.85,-2.716450222795499,9.928459877495278,-22.36410491324487,-0.03222766382662782,0.1179173414019252,-0.19432907102225716,0.025405787122281195,-0.09342088991928467,0.15501492016450905,0,70,255.0,255.0,255.0
538,26.900000000000002,-2.7180299021875802,9.93423909831616,-22.373627214588506,-0.030960580549698084,0.11325408869712833,-0.18655531157768251,0.025277543954907382,-0.09310921827258663,0.1559354576184724,0,70,255.0,255.0,255.0
539,26.950000000000003,-2.7195463877197743,9.939785546091365,-22.382759677288092,-0.02969990943113704,0.1086064195746664,-0.1787355252604097,0.025149300787533573,-0.0927975466258886,0.1568559950724358,0,70,255.0,255.0,255.0
540,27.0,-2.721,9.9451,-22.3915,-0.02844565047094478,0.10397433403453966,-0.17086971207043927,0.02502105762015977,-0.09248587497919092,0.15777653252639956,0,70,255.0,255.0,255.0
541,27.05,-2.7223907701649854,9.950182282158679,-22.399846369646855,-0.027180435397725782,0.099300408326123,-0.1629871679835628,0.02558754530859939,-0.09447115335747279,0.15752523094865448,0,70,255.0,255.0,255.0
542,27.1,-2.723717571466699,9.955028386433964,-22.407798926216337,-0.0258868959400848,0.09452721869879226,-0.15511718897557358,0.026154032997039004,-0.09645643173575466,0.15727392937090937,0,70,255.0,255.0,255.0
543,27.150000000000002,-2.7249789876859203,9.959633349629911,-22.415358297962396,-0.024565032098021845,0.0896547651525474,-0.14725977504647167,0.026720520685478623,-0.09844171011403652,0.15702262779316428,0,70,255.0,255.0,255.0
544,27.200000000000003,-2.7261736026034273,9.96399220855057,-22.422525113138967,-0.023214843871536904,0.08468304768738846,-0.13941492619625695,0.02728700837391824,-0.10042698849231839,0.1567713262154192,0,70,255.0,255.0,255.0
545,27.25,-2.7273,9.9681,-22.4293,-0.02183633126063008,0.07961206630331578,-0.13158264242493006,0.027853496062357874,-0.10241226687060034,0.15652002463767456,0,70,255.0,255.0,255.0
546,27.3,-2.728357090404448,9.971953366915688,-22.43568264681176,-0.020449099147171898,0.07453818900644678,-0.12370652447161921,0.027635788475968735,-0.10054282500415729,0.1585246934947548,0,70,255.0,255.0,255.0
547,27.35,-2.7293450913377058,9.975555376768867,-22.44166898188978,-0.019072752413033165,0.06955778380289991,-0.11573017307545436,0.02741808088957959,-0.09867338313771425,0.16052936235183501,0,70,255.0,255.0,255.0
548,27.400000000000002,-2.73026454706874,9.978910703164201,-22.44725399356193,-0.017707291058213896,0.06467085069267521,-0.10765358823643549,0.027200373303190452,-0.09680394127127119,0.16253403120891521,0,70,255.0,255.0,255.0
549,27.450000000000003,-2.731116001866516,9.982024019706355,-22.452432670156046,-0.016352715082714086,0.059877389675772656,-0.09947676995456262,0.026982665716801312,-0.09493449940482815,0.16453870006599544,0,70,255.0,255.0,255.0
550,27.5,-2.7319,9.9849,-22.4572,-0.015009024486533823,0.05517740075219258,-0.09119971822983632,0.026764958130412186,-0.09306505753838529,0.16654336892307542,0,70,255.0,255.0,255.0
551,27.55,-2.7326168682172236,9.987541050178567,-22.46155104310611,-0.013663168013585272,0.05043483564808588,-0.08282673412994739,0.0270693007875291,-0.09663754662587987,0.16837599507247725,0,70,255.0,255.0,255.0
552,27.6,-2.7332660631824774,9.98994050649057,-22.465481146224537,-0.012302094407780875,0.04551364608960446,-0.07436211872258836,0.02737364344464601,-0.10021003571337443,0.17020862122187908,0,70,255.0,255.0,255.0
553,27.650000000000002,-2.7338468240391203,9.992089437713286,-22.468985727789907,-0.010925803669120632,0.0404138320767483,-0.06580587200775923,0.027677986101762923,-0.10378252480086901,0.1720412473712809,0,70,255.0,255.0,255.0
554,27.700000000000003,-2.734358389930509,9.993978912624003,-22.472060206236854,-0.009534295797604543,0.03513539360951741,-0.057157993985460016,0.02798232875887983,-0.10735501388836359,0.17387387352068276,0,70,255.0,255.0,255.0
555,27.75,-2.7348,9.9956,-22.4747,-0.008127570793232711,0.029678330687912185,-0.048418484655691325,0.02828667141599668,-0.11092750297585793,0.17570649967008456,0,70,255.0,255.0,255.0
556,27.8,-2.7351714367266595,9.996948032370042,-22.4769051807638,-0.006738228798485032,0.024298468401207928,-0.03986653900855587,0.027287008373909682,-0.10426698849230934,0.16637132621532869,0,70,255.0,255.0,255.0
557,27.85,-2.7354746559323835,9.998035397268856,-22.478694433212066,-0.005398869955841705,0.019251631838681102,-0.03178135203415822,0.026287345331822684,-0.09760647400876075,0.15703615276057284,0,70,255.0,255.0,255.0
558,27.900000000000002,-2.735712156774778,9.998878745982648,-22.48009109527843,-0.004109494265302727,0.014537821000331711,-0.024162923732498367,0.025287682289735686,-0.09094595952521216,0.14770097930581697,0,70,255.0,255.0,255.0
559,27.950000000000003,-2.735886438411449,9.999494729797627,-22.48111850489653,-0.0028701017268681003,0.010157035886159758,-0.01701125410357631,0.024288019247648687,-0.08428544504166358,0.13836580585106112,0,70,255.0,255.0,255.0
560,28.0,-2.736,9.9999,-22.4818,-0.001680692340537907,0.006109276496165512,-0.010326343147392518,0.023288356205561748,-0.07762493055811545,0.1290306323963059,0,70,255.0,255.0,255.0
561,28.05,-2.7360573848761405,10.000116420341257,-22.482168233838678,-0.0006639167924786846,0.002707290747091456,-0.0046671098358344165,0.01738266571680657,-0.058454499404844845,0.09733870006601494,0,70,255.0,255.0,255.0
562,28.1,-2.736071313087989,10.000186704434004,-22.482293120927192,5.757423114277464e-05,0.0002638265556809444,-0.0005924731407908846,0.01147697522805139,-0.03928406825157424,0.06564676773572399,0,70,255.0,255.0,255.0
563,28.150000000000002,-2.7360565488617667,10.00015877835612,-22.482253891096367,0.0004837807303264706,-0.0012211160780660228,0.0018975669377380771,0.00557128473929621,-0.020113637098303633,0.03395483540543304,0,70,255.0,255.0,255.0
