idx,t,px,py,pz,vx,vy,vz,ax,ay,az,yaw,mode,ledr,ledg,ledb
0,0.0,0.0,3.0,0.0,-3.8078763089345495e-12,-1.48376025249473e-11,0.0807048396918224,4.56945157072146e-11,1.7805123029936762e-10,-2.2460580763018685,0,70,255.0,255.0,255.0
1,0.05,-1.3708354712164377e-13,2.9999999999994658,0.0012485742289056066,-1.7516231021098925e-12,-6.8252971614757585e-12,-0.030343773741761688,3.6555612565771675e-11,1.424409842394941e-10,-2.195886461041495,0,70,255.0,255.0,255.0
2,0.1,-1.827780628288583e-13,2.999999999999288,-0.0029925676947925254,-1.5231505235738141e-13,-5.935041009978926e-13,-0.1388838064123271,2.7416709424328756e-11,1.0683073817962057e-10,-2.1457148457811215,0,70,255.0,255.0,255.0
3,0.15000000000000002,-1.5993080497525105e-13,2.999999999999377,-0.012597996732943461,9.900478403229838e-13,3.857776656486299e-12,-0.24491525831987387,1.8277806282885834e-11,7.122049211974703e-11,-2.0955432305207475,0,70,255.0,255.0,255.0
4,0.2,-9.138903141442898e-14,2.9999999999996443,-0.02744228384739627,1.6754655759312024e-12,6.5285451109768104e-12,-0.3484381294644019,9.138903141442915e-12,3.5610246059873524e-11,-2.045371615260374,0,70,255.0,255.0,255.0
5,0.25,0.0,3.0,-0.0474,1.9039381544672747e-12,7.41880126247365e-12,-0.4494524198459112,0.0,0.0,-1.9952000000000023,0,70,255.0,255.0,255.0
6,0.30000000000000004,9.138903141442927e-14,3.000000000000356,-0.07234571615260377,1.6754655759312014e-12,6.528545110976811e-12,-0.547958129464402,-9.138903141442927e-12,-3.5610246059873556e-11,-1.945028384739627,0,70,255.0,255.0,255.0
7,0.35000000000000003,1.5993080497525113e-13,3.0000000000006235,-0.10215400326705655,9.900478403229822e-13,3.857776656486296e-12,-0.643955258319874,-1.8277806282885844e-11,-7.122049211974707e-11,-1.894856769479252,0,70,255.0,255.0,255.0
8,0.4,1.827780628288584e-13,3.0000000000007123,-0.1366994323052075,-1.5231505235738262e-13,-5.935041009978946e-13,-0.7374438064123271,-2.7416709424328763e-11,-1.0683073817962058e-10,-1.8446851542188767,0,70,255.0,255.0,255.0
9,0.45,1.3708354712164375e-13,3.0000000000005342,-0.17585657422890563,-1.7516231021098937e-12,-6.825297161475761e-12,-0.8284237737417617,-3.655561256577168e-11,-1.424409842394941e-10,-1.7945135389585016,0,70,255.0,255.0,255.0
10,0.5,0.0,3.0,-0.2195,-3.8078763089345495e-12,-1.48376025249473e-11,-0.9168951603081774,-4.5694515707214603e-11,-1.7805123029936764e-10,-1.7443419236981175,0,70,255.0,255.0,255.0
11,0.55,-2.2847257853607323e-13,2.9999999999991096,-0.26749930961849067,-4.950239201614915e-12,-1.9288883282431495e-11,-1.0025597084006304,3.877409121342317e-26,1.2924697071141057e-25,-1.6822399999999949,0,70,255.0,255.0,255.0
12,0.6000000000000001,-4.569451570721463e-13,2.999999999998219,-0.31970421923698134,-3.807876308934545e-12,-1.483760252494729e-11,-1.085119160308177,4.569451570721468e-11,1.780512302993679e-10,-1.6201380763018722,0,70,255.0,255.0,255.0
13,0.65,-5.711814463401826e-13,2.9999999999977742,-0.3759594740462266,-3.8078763089345293e-13,-1.483760252494727e-12,-1.1645735160308175,9.138903141442922e-11,3.561024605987353e-10,-1.5580361526037496,0,70,255.0,255.0,255.0
14,0.7000000000000001,-4.569451570721455e-13,2.9999999999982196,-0.4361098192369813,5.33102683250838e-12,2.0772643534926254e-11,-1.2409227755685521,1.3708354712164386e-10,5.34153690898103e-10,-1.495934228905627,0,70,255.0,255.0,255.0
15,0.75,0.0,3.0,-0.5,1.3327567081270924e-11,5.193160883731556e-11,-1.3141669389213801,1.8277806282885836e-10,7.122049211974706e-10,-1.4338323052074937,0,70,255.0,255.0,255.0
16,0.8,8.225012827298635e-13,3.000000000003205,-0.5674762453734339,1.8125491230528456e-11,7.062698801874917e-11,-1.3843950369330769,9.138903141442767e-12,3.561024605987303e-11,-1.375291615260372,0,70,255.0,255.0,255.0
17,0.8500000000000001,1.6678498233133336e-12,3.000000000006499,-0.6383907197850186,1.4241457395415202e-11,5.549263344330286e-11,-1.4516961004474174,-1.6450025654597283e-10,-6.409844290777245e-10,-1.3167509253132503,0,70,255.0,255.0,255.0
18,0.9,2.1019477225318714e-12,3.0000000000081903,-0.7125970715098863,1.6754655759311903e-12,6.528545110976783e-12,-1.516070129464402,-3.3813941623338814e-10,-1.3175791042153207e-09,-1.2582102353661289,0,70,255.0,255.0,255.0
19,0.9500000000000001,1.690697081166938e-12,3.000000000006588,-0.7899489488231695,-1.9572484227923623e-11,-7.626527697822925e-11,-1.5775171239840302,-5.117785759208037e-10,-1.9941737793529184e-09,-1.199669545419007,0,70,255.0,255.0,255.0
20,1.0,0.0,3.0,-0.8703,-4.9502392016149145e-11,-1.9288883282431494e-10,-1.6360370840063025,-6.854177356082189e-10,-2.6707684544905148e-09,-1.1411288554718784,0,70,255.0,255.0,255.0
21,1.05,-3.061532552383381e-12,2.9999999999880704,-0.9535053088877744,-6.755172572049892e-11,-2.6321906879256517e-10,-1.691716143867062,-3.655561256577107e-11,-1.4244098423949213e-10,-1.0860335389585007,0,70,255.0,255.0,255.0
22,1.1,-6.21445413618119e-12,2.999999999975785,-1.0394257016229451,-5.315795327272626e-11,-2.071329312482642e-10,-1.7446404379021527,6.123065104766768e-10,2.3858864860115305e-09,-1.030938222445123,0,70,255.0,255.0,255.0
23,1.1500000000000001,-7.836609443787305e-12,2.999999999969464,-1.1279234399142288,-6.321074672831189e-12,-2.4630420191411927e-11,-1.7948099661115744,1.2611686335191247e-09,4.914213956262553e-09,-0.9758429059317453,0,70,255.0,255.0,255.0
24,1.2000000000000002,-6.3058431675956e-12,2.999999999975429,-1.2188607854703417,7.295891007918631e-11,2.8428846437799145e-10,-1.8422247284953273,1.9100307565615723e-09,7.442541426513576e-09,-0.9207475894183675,0,70,255.0,255.0,255.0
25,1.25,0.0,3.0,-1.3121,1.8468200098332566e-10,7.196237224599442e-10,-1.8868847250534109,2.558892879604017e-09,9.970868896764589e-09,-0.8656522729049776,0,70,255.0,255.0,255.0
26,1.3,1.1423628926803659e-11,3.000000000044513,-1.407508119075469,2.5208141165146723e-10,9.822492871515117e-10,-1.9290763875986758,1.3708354712164143e-10,5.34153690898096e-10,-0.8220142289056177,0,70,255.0,255.0,255.0
27,1.35,2.3189966721411424e-11,3.000000000090361,-1.5049712737232015,1.9839035569548984e-10,7.730390915497538e-10,-1.9690861479439727,-2.2847257853607343e-09,-8.902561514968397e-09,-0.7783761849062578,0,70,255.0,255.0,255.0
28,1.4000000000000001,2.924449005261735e-11,3.000000000113953,-1.6043803688332001,2.3608833115393532e-11,9.199313565467108e-11,-2.0069140060893016,-4.706535117843109e-09,-1.833927672083489e-08,-0.7347381409068978,0,70,255.0,255.0,255.0
29,1.4500000000000002,2.3532675589215466e-11,3.0000000000916964,-1.705626309295466,-2.722631560888215e-10,-1.060888580533737e-09,-2.0425599620346624,-7.128344450325486e-09,-2.7775991926701383e-08,-0.691100096907538,0,70,255.0,255.0,255.0
30,1.5,0.0,3.0,-1.8086,-6.892256119171535e-10,-2.685606057015462e-09,-2.0760240157800554,-9.550153782807854e-09,-3.721270713256784e-08,-0.6474620529081854,0,70,255.0,255.0,255.0
31,1.55,-4.263298315483126e-11,2.9999999998338787,-1.9131854148103509,-9.4077392088537e-10,-3.6657780798134814e-09,-2.106890305738235,-5.117785759207976e-10,-1.9941737793528873e-09,-0.5871895454190088,0,70,255.0,255.0,255.0
32,1.6,-8.65454127494645e-11,2.9999999996627706,-2.0192388034842494,-7.404034695092335e-10,-2.8850234349507515e-09,-2.1347429703219563,8.526596630966259e-09,3.322435957386207e-08,-0.5269170379298322,0,70,255.0,255.0,255.0
33,1.6500000000000001,-1.091413507666821e-10,2.9999999995747246,-2.126609484752972,-8.811425778874312e-11,-3.433421224272702e-10,-2.1595820095312184,1.7564971837853317e-08,6.844289292707702e-08,-0.4666445304406557,0,70,255.0,255.0,255.0
34,1.7000000000000002,-8.782485918926632e-11,2.9999999996577857,-2.2351467773477967,1.0160937142760996e-09,3.959265857756958e-09,-2.181407423366022,2.660334704474037e-08,1.0366142628029198e-07,-0.4063720229514791,0,70,255.0,255.0,255.0
35,1.75,0.0,3.0,-2.3447,2.5722204466852885e-09,1.0022800505601904e-08,-2.200219211826367,3.564172225162738e-08,1.3887995963350673e-07,-0.34609951546231343,0,70,255.0,255.0,255.0
36,1.8,1.591083036925214e-10,3.0000000006199743,-2.455119821683128,3.5110142718900126e-09,1.3680863032102411e-08,-2.216098389448384,1.910030756561535e-09,7.4425414265134335e-09,-0.2890675894183658,0,70,255.0,255.0,255.0
37,1.85,3.229916842764466e-10,3.000000001258555,-2.566262312339802,2.7632235223414425e-09,1.0767054648253249e-08,-2.2291259707682034,-3.182166073850431e-08,-1.2399487678047987e-07,-0.23203566337441817,0,70,255.0,255.0,255.0
38,1.9000000000000001,4.073209130141109e-10,3.0000000015871486,-2.6779848921549116,3.2884819803957905e-10,1.2813753540544123e-09,-2.239301955785826,-6.555335223357015e-08,-2.554322949874732e-07,-0.17500373733047056,0,70,255.0,255.0,255.0
39,1.9500000000000002,3.277667611678496e-10,3.0000000012771615,-2.790144981313348,-3.792111701015579e-09,-1.4776174850494091e-08,-2.2466263445012506,-9.928504372863601e-08,-3.8686971319446647e-07,-0.11797181128652293,0,70,255.0,255.0,255.0
40,2.0,0.0,3.0,-2.9026,-9.599656174824e-09,-3.7405595965392154e-08,-2.251099136914478,-1.330167352237017e-07,-5.183071314014592e-07,-0.06093988524257554,0,70,255.0,255.0,255.0
41,2.0500000000000003,-5.938002316152572e-10,2.999999997686224,-3.0152072984571383,-1.3103283166674682e-08,-5.105767404859618e-08,-2.252716136468231,-7.128344450324815e-09,-2.7775991926698742e-08,-0.003740096907537502,0,70,255.0,255.0,255.0
42,2.1,-1.205421324356322e-09,2.9999999953030083,-3.127823947156544,-1.0312490619856536e-08,-4.018319515806225e-08,-2.251473146605232,1.1876004632305095e-07,4.627551475480573e-07,0.05345969142750004,0,70,255.0,255.0,255.0
43,2.15,-1.5201423012897615e-09,2.999999994076681,-3.2403069466273813,-1.2272785343696252e-09,-4.782159293790602e-09,-2.2473701673254807,2.446484370964267e-07,9.532862870228135e-07,0.11065947976253757,0,70,255.0,255.0,255.0
44,2.2,-1.2232421854821323e-09,2.9999999952335683,-3.3525132973988137,1.415235308978621e-08,5.5145433544219374e-08,-2.2404071986289775,3.705368278698036e-07,1.4438174264975738e-06,0.16785926809757562,0,70,255.0,255.0,255.0
45,2.25,0.0,3.0,-3.4643,3.582640425261071e-08,1.395995833559667e-07,-2.230584240515723,4.964252186431792e-07,1.9343485659723296e-06,0.2250590564326167,0,70,255.0,255.0,255.0
46,2.3000000000000003,2.216092622768506e-09,3.0000000086351286,-3.5755237844883228,4.8902118394808715e-08,1.905498331622823e-07,-2.2178850646786943,2.6603347044737744e-08,1.0366142628028172e-07,0.2829079770485233,0,70,255.0,255.0,255.0
47,2.35,4.498693613148841e-09,3.000000017529411,-3.686040299034023,3.84867389570847e-08,1.4996572598399573e-07,-2.2022934428108707,-4.432185245536995e-07,-1.7270257134117496e-06,0.3407568976644293,0,70,255.0,255.0,255.0
48,2.4000000000000004,5.673248292144936e-09,3.0000000221061285,-3.7957049213355636,4.580265939438485e-09,1.784726182110631e-08,-2.183809374912251,-9.130403961521411e-07,-3.5577128531037977e-06,0.39860581828033587,0,70,255.0,255.0,255.0
49,2.45,4.565201980760679e-09,3.0000000177885644,-3.904373029091402,-5.281730065812929e-08,-2.0580555932638355e-07,-2.162432860982837,-1.3828622677505783e-06,-5.388399992795829e-06,0.4564547388962419,0,70,255.0,255.0,255.0
50,2.5,0.0,3.0,-4.0119,-1.3370596083561884e-07,-5.209927374584747e-07,-2.138163901022627,-1.8526841393490153e-06,-7.219087132487861e-06,0.5143036595121622,0,70,255.0,255.0,255.0
51,2.5500000000000003,-8.270570259458767e-09,2.9999999677732614,-4.118141563589575,-1.8250519041256016e-07,-7.111416586005329e-07,-2.111023604816986,-9.928504372862632e-08,-3.8686971319442984e-07,0.5713081887134702,0,70,255.0,255.0,255.0
52,2.6,-1.678935312823904e-08,2.999999934579349,-4.222954856707364,-1.4363446520848222e-07,-5.596797087779208e-07,-2.08103308215128,1.654114051891747e-06,6.445347706098942e-06,0.6283127179147777,0,70,255.0,255.0,255.0
53,2.6500000000000004,-2.117285086728998e-08,2.9999999174988057,-4.3261973680303685,-1.7093785223384474e-08,-6.660688799063534e-08,-2.0481923330255083,3.407513147512136e-06,1.3277565125392373e-05,0.6853172471160858,0,70,255.0,255.0,255.0
54,2.7,-1.7037565737560583e-08,2.9999999336121745,-4.427726586235581,1.9711684954273087e-07,7.680768037613146e-07,-2.0125013574396715,5.1609122431325095e-06,2.0109782544685746e-05,0.7423217763173933,0,70,255.0,255.0,255.0
55,2.75,0.0,3.0,-4.5274,4.989974390898646e-07,1.944371366477932e-06,-1.9739601553937693,6.914311338752885e-06,2.6941999963979108e-05,0.7993263055187079,0,70,255.0,255.0,255.0
56,2.8000000000000003,3.0866188415066566e-08,3.0000001202718254,-4.625074761153383,6.811186432554319e-07,2.6540168012398494e-06,-1.932548516053362,3.705368278697681e-07,1.443817426497431e-06,0.8571392680975843,0,70,255.0,255.0,255.0
57,2.85,6.265871889980734e-08,3.0000002441531946,-4.720606674136521,5.360511218768445e-07,2.088753109127687e-06,-1.888246228584011,-6.173237683013289e-06,-2.4054365110984022e-05,0.9149522306764604,0,70,255.0,255.0,255.0
58,2.9000000000000004,7.9018155177015e-08,3.000000307898651,-4.813851206542968,6.379487495409957e-08,2.4858029014143323e-07,-1.8410532929857157,-1.2717012193896407e-05,-4.9552547648465696e-05,0.9727651932553368,0,70,255.0,255.0,255.0
59,2.95,6.358506096948167e-08,3.0000002477627383,-4.904663825966278,-7.356500975127945e-07,-2.8665016557188753e-06,-1.790969709258477,-1.926078670477946e-05,-7.505073018594716e-05,1.0305781558342129,0,70,255.0,255.0,255.0
60,3.0,0.0,3.0,-4.9929,-1.8622837955238398e-06,-7.256492728453253e-06,-1.7379954774022945,-2.5804561215662524e-05,-0.0001005489127234286,1.088391118413087,0,70,255.0,255.0,255.0
61,3.0500000000000003,-1.1519418340080751e-07,2.999999551139436,-5.078415391796898,-2.541969382609168e-06,-9.904925546358864e-06,-1.682142330969561,-1.3828622677504512e-06,-5.388399992795325e-06,1.1457347388962495,0,70,255.0,255.0,255.0
62,3.1,-2.3384552247099026e-07,2.9999990888078725,-5.1610664467465535,-2.0005700222988957e-06,-7.79533272773283e-06,-1.6234220035126694,2.3038836680161404e-05,8.977211273783711e-05,1.2030783593794117,0,70,255.0,255.0,255.0
63,3.1500000000000004,-2.9489976984077e-07,2.9999988509065907,-5.240709805797763,-2.380857145930145e-07,-9.277142725751037e-07,-1.5618344950316196,4.746053562807348e-05,0.0001849326254684704,1.2604219798625742,0,70,255.0,255.0,255.0
64,3.2,-2.3730267814036608e-07,2.9999990753368726,-5.317202109899312,2.7454835405084453e-06,1.0697929819114186e-05,-1.497379805526412,7.188223457598533e-05,0.0002800931381991028,1.3177656003457363,0,70,255.0,255.0,255.0
65,3.25,0.0,3.0,-5.3904,6.950137743005495e-06,2.708159954733508e-05,-1.4300579349970466,9.630393352389721e-05,0.0003752536509297352,1.3751092208288966,0,70,255.0,255.0,255.0
66,3.3000000000000003,4.299105451881635e-07,3.0000016751704295,-5.46015967165903,9.486758887181239e-06,3.69656853841956e-05,-1.3598421600683896,5.160912243132025e-06,2.0109782544683763e-05,1.433521776317372,0,70,255.0,255.0,255.0
67,3.35,8.727233709841538e-07,3.0000034006153142,-5.526335538877265,7.4662289673187355e-06,2.9092577801803628e-05,-1.2867057573653093,-8.598210903763235e-05,-0.00033503408584036444,1.4919343318058467,0,70,255.0,255.0,255.0
68,3.4000000000000004,1.1005809241860651e-06,3.000004288474986,-5.588781570265986,8.885479834179558e-07,3.4622768001589673e-06,-1.2106487268878046,-0.00017712513031839752,-0.000690177954225416,1.550346887294322,0,70,255.0,255.0,255.0
69,3.45,8.856256515919829e-07,3.0000034508897713,-5.647351734436471,-1.0246284064520993e-05,-3.992521762073786e-05,-1.1316710686358769,-0.00026826815159916194,-0.0010453218226104642,1.6087594427827967,0,70,255.0,255.0,255.0
70,3.5,0.0,3.0,-5.7019,-2.593826717649814e-05,-0.00010106990546088707,-1.0497727826095256,-0.0003594111728799263,-0.001400465690995513,1.6671719982712752,0,70,255.0,255.0,255.0
71,3.5500000000000003,-1.6044479973518465e-06,2.999993748178847,-5.752283521566987,-3.540506616611579e-05,-0.0001379578159904236,-0.9651450287568873,-1.926078670477766e-05,-7.505073018594026e-05,1.717938155834233,0,70,255.0,255.0,255.0
72,3.6,-3.257047961465625e-06,2.9999873087308684,-5.798372197744387,-2.7864345846976067e-05,-0.00010857497847948172,-0.8779789670261021,0.00032088959947036797,0.0012503642306236208,1.7687043133971905,0,70,255.0,255.0,255.0
73,3.6500000000000004,-4.107423926903492e-06,2.999983995193466,-5.840039113138293,-3.316106219078814e-06,-1.2921392928060796e-05,-0.7882745974171681,0.0006610399856455166,0.0025757791914331938,1.8194704709601486,0,70,255.0,255.0,255.0
74,3.7,-3.3051999282275646e-06,2.999987121104043,-5.877157352354802,3.82396527175755e-05,0.00014900294066383726,-0.6960319199300872,0.0010011903718206623,0.0039011941522427546,1.870236628523106,0,70,255.0,255.0,255.0
75,3.75,0.0,3.0,-5.9096,9.680293096298707e-05,0.00037719802229621325,-0.6012509345648582,0.0013413407579958058,0.005226609113052316,1.9210027860860643,0,70,255.0,255.0,255.0
76,3.8000000000000003,7.587881444219246e-06,3.000027332114183,-5.937332642073028,0.00022813350577728287,0.0007548655785775815,-0.5094817249040624,0.003911882234575999,0.009880093138202335,1.7497656003457496,0,70,255.0,255.0,255.0
77,3.85,2.4955468474878374e-05,3.0000793644612123,-5.96069087014519,0.00048799115442058614,0.0013652073361164452,-0.4262743745302831,0.006482423711156168,0.01453357716335231,1.5785284146054361,0,70,255.0,255.0,255.0
78,3.9000000000000004,5.85291147834282e-05,3.0001677307511487,-5.980102777180838,0.0008763758768929014,0.002208223294912816,-0.3516288834435187,0.00905296518773636,0.019187061188502327,1.4072912288651214,0,70,255.0,255.0,255.0
79,3.95,0.00011473517406131853,3.000304064694058,-5.995996456144326,0.0013932876731942217,0.0032839134549666775,-0.28554525164377076,0.011623506664316531,0.023840545213652302,1.236054043124808,0,70,255.0,255.0,255.0
80,4.0,0.0002,3.0005,-6.0088,0.00203872654332455,0.004592277816278038,-0.22802347913103835,0.014194048140896687,0.02849402923880228,1.0648168573844952,0,70,255.0,255.0,255.0
81,4.05,0.0003200529222204746,3.0007673233644203,-6.018915510140905,0.0027708710430569853,0.006142495501682732,-0.17750407162685652,0.015091731848400828,0.03351467817738571,0.955959442782785,0,70,255.0,255.0,255.0
82,4.1000000000000005,0.00047783517406195416,3.001118433424284,-6.026641121674854,0.0035478997281646416,0.007943745634016631,-0.13242753485275943,0.015989415555904985,0.038535327115969235,0.8471020281810729,0,70,255.0,255.0,255.0
83,4.15,0.0006755909647931935,3.0015658818019375,-6.032248978138349,0.004369812598647491,0.00999602821327967,-0.09279386880874868,0.016887099263409124,0.043555976054552664,0.7382446135793628,0,70,255.0,255.0,255.0
84,4.2,0.0009155645036829552,3.0021222201197277,-6.036011223067897,0.005236609654505548,0.012299343239471882,-0.05860307349482342,0.017784782970913265,0.0485766249931361,0.6293871989776526,0,70,255.0,255.0,255.0
85,4.25,0.0012,3.0028,-6.0382,0.006148290895738811,0.014853690712593263,-0.029855148910983658,0.01868246667841738,0.05359727393171944,0.5205297843759427,0,70,255.0,255.0,255.0
86,4.3,0.001531400429673879,3.0036105744281363,-6.039098917363351,0.007120382321994759,0.017587152414692272,-0.007237988588507892,0.020201190371820648,0.05574119415224126,0.3841566285230913,0,70,255.0,255.0,255.0
87,4.3500000000000005,0.0019133038352773166,3.0045605018416532,-6.0390374431553955,0.008168409932920888,0.02042781012781742,0.008560513941325553,0.021719914065223944,0.05788511437276313,0.24778347267023743,0,70,255.0,255.0,255.0
88,4.4,0.002349507026043807,3.005655142041102,-6.038356510265762,0.009292373728517163,0.02337566385196861,0.0175403586785161,0.02323863775862721,0.06002903459328495,0.11141031681738606,0,70,255.0,255.0,255.0
89,4.45,0.002843806811206865,3.006899854827034,-6.037397051584087,0.010492273708783601,0.026430713587145896,0.019701545623064122,0.024757361452030478,0.06217295481380678,-0.024962839035465367,0,70,255.0,255.0,255.0
90,4.5,0.0034,3.0083,-6.0365,0.011768109873720203,0.029592959333349267,0.015044074774969577,0.02627608514543371,0.0643168750343287,-0.16133599488831674,0,70,255.0,255.0,255.0
91,4.55,0.004021545359084001,3.0098615789230356,-6.03598722040569,0.013099599668963954,0.032900894839548764,0.004712025980882078,0.02698350666431651,0.06800054521365174,-0.25194595687518473,0,70,255.0,255.0,255.0
92,4.6000000000000005,0.004710549484828806,3.0115931592091045,-6.036104305703568,0.014466460540151868,0.03639301385471448,-0.010150520912549107,0.02769092818319932,0.07168421539297484,-0.3425559188620543,0,70,255.0,255.0,255.0
93,4.65,0.005468780931031596,3.0135039500336562,-6.0370777807986,0.015868692487283897,0.04006931637884628,-0.029543565905323456,0.028398349702082118,0.07536788557229789,-0.43316588084892227,0,70,255.0,255.0,255.0
94,4.7,0.006298008251489593,3.0156031605721383,-6.039134170595756,0.01730629551036007,0.043929802411944247,-0.053467108997441185,0.029105771220964916,0.07905155575162091,-0.5237758428357903,0,70,255.0,255.0,255.0
95,4.75,0.0072,3.0179,-6.0425,0.01877926960938038,0.04797447195400835,-0.0819211501889023,0.029813192739847616,0.08273522593094396,-0.6143858048226586,0,70,255.0,255.0,255.0
96,4.800000000000001,0.00817601813399012,3.0204007098797234,-6.04731700101389,0.020257219002149423,0.05202526822711053,-0.10981811533502712,0.029304782970913226,0.07929662499314111,-0.501492801022319,0,70,255.0,255.0,255.0
97,4.8500000000000005,0.009225298225407507,3.0230996613219294,-6.053387734030336,0.021709747906471722,0.055904134453322506,-0.13207043029113455,0.028796373201978847,0.07585802405533833,-0.38859979722198146,0,70,255.0,255.0,255.0
98,4.9,0.01034656924982984,3.0259882578242743,-6.060429966539838,0.023136856322347295,0.05961107063264434,-0.14867809505722515,0.028287963433044468,0.07241942311753555,-0.27570679342164395,0,70,255.0,255.0,255.0
99,4.95,0.011538560182834782,3.0290579028844125,-6.068161466032891,0.024538544249776157,0.06314607676507604,-0.15964110963329886,0.02777955366411009,0.06898082217973277,-0.16281378962130638,0,70,255.0,255.0,255.0
100,5.0,0.0128,3.0323,-6.0763,0.0259148116887583,0.06650915285061759,-0.16495947401935573,0.027271143895175737,0.06554222124192988,-0.04992078582096937,0,70,255.0,255.0,255.0
101,5.050000000000001,0.014129582104955594,3.0357075815580714,-6.08462157553875,0.027263524322438476,0.06979803225201103,-0.16812756464076703,0.02667736145203043,0.06601295481380634,-0.07680283903548094,0,70,255.0,255.0,255.0
102,5.1000000000000005,0.01552585761354124,3.039280195503178,-6.093135158175089,0.028582547833961358,0.07311044833199826,-0.17263975792290384,0.026083579008885138,0.0664836883856828,-0.10368489224999203,0,70,255.0,255.0,255.0
103,5.15,0.016987342069649095,3.043019018669248,-6.101907953042052,0.029871882223326977,0.0764464010905793,-0.17849605386576622,0.025489796565739842,0.06695442195755925,-0.1305669454645031,0,70,255.0,255.0,255.0
104,5.2,0.018512551017171305,3.0469252278902124,-6.111007165272677,0.03113152749053533,0.07980589052775416,-0.1856964524693541,0.02489601412259455,0.06742515552943572,-0.15744899867901418,0,70,255.0,255.0,255.0
105,5.25,0.0201,3.051,-6.1205,0.03236148363558642,0.08318891664352286,-0.19424095373366757,0.024302231679449282,0.06789588910131206,-0.18433105189352528,0,70,255.0,255.0,255.0
106,5.300000000000001,0.02174885344618762,3.0552441638879904,-6.130439096831109,0.03360068370809679,0.08657460276484605,-0.20325562610190123,0.02526577122096494,0.06753155575161356,-0.17625584283581533,0,70,255.0,255.0,255.0
107,5.3500000000000005,0.023460871320427627,3.05965715666536,-6.140818833269309,0.03488806075768292,0.08994207221868426,-0.2118665380172492,0.026229310762480584,0.06716722240191506,-0.16818063377810555,0,70,255.0,255.0,255.0
108,5.4,0.025238462471573832,3.064238067498734,-6.151619021291953,0.03622361478434485,0.09329132500503753,-0.2200736894797117,0.027192850303996225,0.06680288905221655,-0.16010542472039577,0,70,255.0,255.0,255.0
109,5.45,0.027084035748480024,3.0689859855547392,-6.162819472876398,0.037607345788082544,0.09662236112390589,-0.2278770804892887,0.02815638984551187,0.06643855570251807,-0.15203021566268596,0,70,255.0,255.0,255.0
110,5.5,0.029,3.0739,-6.1744,0.03903925376889602,0.0999351805752893,-0.23527671104598022,0.0291199293870274,0.06607422235281901,-0.1439550066049764,0,70,255.0,255.0,255.0
111,5.550000000000001,0.030987804110294066,3.0789789628899666,-6.186344437136813,0.040461740845174475,0.10321555668860335,-0.2425139309516367,0.02777955366411008,0.06514082217974154,-0.14553378962127936,0,70,255.0,255.0,255.0
112,5.6000000000000005,0.03304505710474837,3.084220777835383,-6.1986527087476775,0.041817209135307044,0.10644926279326349,-0.24983009000810824,0.02643917794119279,0.06420742200666409,-0.1471125726375823,0,70,255.0,255.0,255.0
113,5.65,0.03516840804405566,3.0896231113358157,-6.211328761790137,0.04310565863929375,0.10963629888926975,-0.2572251882153949,0.0250988022182755,0.06327402183358663,-0.14869135565388525,0,70,255.0,255.0,255.0
114,5.7,0.03735450598890863,3.095183629890833,-6.22437654322173,0.044327089357134586,0.11277666497662213,-0.2646992255734967,0.023758426495358205,0.062340621660509174,-0.15027013867018818,0,70,255.0,255.0,255.0
115,5.75,0.0396,3.1009,-6.2378,0.04548150128882956,0.11587036105532064,-0.2722522020824137,0.02241805077244058,0.06140722148743172,-0.15184892168649133,0,70,255.0,255.0,255.0
116,5.800000000000001,0.0419023301126363,3.106770384552143,-6.251601554621643,0.046616352911205444,0.11894717048074228,-0.27979265009155146,0.022976014122594354,0.06166515552943222,-0.14976899867901483,0,70,255.0,255.0,255.0
117,5.8500000000000005,0.044262100260579036,3.1127949319931094,-6.265777531739983,0.04777910270108901,0.12203687660826389,-0.28722910195031526,0.02353397747274812,0.061923089571432714,-0.14768907567153836,0,70,255.0,255.0,255.0
118,5.9,0.04668070535220364,3.1189742871580046,-6.280322731547501,0.04896975065848025,0.12513947943788553,-0.29456155765870523,0.024091940822901885,0.06218102361343321,-0.14560915266406188,0,70,255.0,255.0,255.0
119,5.95,0.049159540295885505,3.1253090948819335,-6.295231954236679,0.05018829678337919,0.1282549789696072,-0.3017900172167214,0.02464990417305565,0.062438957655433704,-0.1435292296565854,0,70,255.0,255.0,255.0
120,6.0,0.0517,3.1318,-6.3105,0.05143474107578581,0.13138337520342888,-0.3089144806243638,0.025207867523209637,0.06269689169743464,-0.14144930664910937,0,70,255.0,255.0,255.0
121,6.050000000000001,0.054302875439160965,3.138447498901462,-6.326122944376619,0.05267284751000386,0.13451576138842755,-0.3160114686821589,0.024316389845511852,0.06259855570250984,-0.14243021566269115,0,70,255.0,255.0,255.0
122,6.1000000000000005,0.05696654185293567,3.1452514941921805,-6.342101964292394,0.05386638006033701,0.1376432307736799,-0.32315750219063294,0.023424912167814085,0.06250021970758506,-0.14341112467627293,0,70,255.0,255.0,255.0
123,6.15,0.059688770547129906,3.152211740032168,-6.35843951201986,0.05501533872678527,0.14076578335918602,-0.3303525811497861,0.022533434490116317,0.06240188371266027,-0.14439203368985468,0,70,255.0,255.0,255.0
124,6.2,0.06246733282754942,3.1593279905814367,-6.375138039831551,0.05611972350934863,0.1438834191449459,-0.3375967055596184,0.021641956812418546,0.062303547717735476,-0.14537294270343645,0,70,255.0,255.0,255.0
125,6.25,0.0653,3.1666,-6.3922,0.0571795344080271,0.14699613813095955,-0.34488987542012967,0.020750479134720057,0.06220521172281068,-0.14635385171701687,0,70,255.0,255.0,255.0
126,6.300000000000001,0.06818536813072006,3.1740268198420094,-6.409626667871883,0.058244257048779065,0.15006178396554293,-0.35216147517980984,0.021838426495357936,0.06042062166052206,-0.1445101386701844,0,70,255.0,255.0,255.0
127,6.3500000000000005,0.07112533232767847,3.181604691238169,-6.427414611090442,0.05936337705756291,0.1530382002970118,-0.3593408892871482,0.022926373855995795,0.058636031598233475,-0.1426664256233519,0,70,255.0,255.0,255.0
128,6.4,0.07412261245927686,3.1893291527133245,-6.445559220373059,0.06053689443437864,0.15592538712536622,-0.3664281177421449,0.024014321216633657,0.05685144153594489,-0.14082271257651946,0,70,255.0,255.0,255.0
129,6.45,0.07717992839391682,3.1971957427923203,-6.464055886437118,0.06176480917922626,0.15872334445060626,-0.37342316054480007,0.02510226857727152,0.0550668514736563,-0.138978999529687,0,70,255.0,255.0,255.0
130,6.5,0.0803,3.2052,-6.4829,0.06304712129210578,0.16143207227273182,-0.3803260176951136,0.026190215937909378,0.05328226141136749,-0.1371352864828519,0,70,255.0,255.0,255.0
131,6.550000000000001,0.08348445203795901,3.2133388217305026,-6.502087184135848,0.06431812429487994,0.1641331027494019,-0.38715063059860005,0.024649904173055993,0.054758957655434794,-0.13584922965660293,0,70,255.0,255.0,255.0
132,6.6000000000000005,0.08673052883635066,3.2216145408551435,-6.521613991345838,0.06551211170941139,0.16690796803827535,-0.393910940660774,0.023109592408202633,0.05623565389950206,-0.13456317283035402,0,70,255.0,255.0,255.0
133,6.65,0.09003437961576277,3.2300308491145335,-6.541477206487904,0.06662908353570018,0.16975666813935208,-0.4006069478816354,0.021569280643349276,0.05771235014356933,-0.13327711600410508,0,70,255.0,255.0,255.0
134,6.7,0.09339215359678327,3.238591438249282,-6.5616736144199805,0.06766903977374632,0.17267920305263226,-0.40723865226118444,0.020028968878495916,0.059189046387636605,-0.13199105917785614,0,70,255.0,255.0,255.0
135,6.75,0.0968,3.2473,-6.5822,0.06863198042354977,0.17567557277811574,-0.4138060537994209,0.018488657113642337,0.06066574263170388,-0.13070500235160676,0,70,255.0,255.0,255.0
136,6.800000000000001,0.10025522371744408,3.2561586932359816,-6.603053395584723,0.06958724577170129,0.17865380503685158,-0.4203240024257967,0.01972195681241797,0.05846354771772738,-0.1300129427034209,0,70,255.0,255.0,255.0
137,6.8500000000000005,0.10375975232691914,3.265163545341257,-6.624231823526206,0.07060417610479158,0.18152192754988852,-0.4268073480697631,0.02095525651119358,0.05626135280375093,-0.12932088305523504,0,70,255.0,255.0,255.0
138,6.9,0.1073166690776722,3.274309050828542,-6.645733553675327,0.07168277142282065,0.18427994031722664,-0.43325609073132015,0.022188556209969186,0.05405915788977447,-0.12862882340704918,0,70,255.0,255.0,255.0
139,6.95,0.11092905721895016,3.2835897042105513,-6.667556855882965,0.0728230317257885,0.18692784333886595,-0.43967023041046793,0.023421855908744797,0.05185696297579802,-0.12793676375886331,0,70,255.0,255.0,255.0
140,7.0,0.1146,3.293,-6.6897,0.0740249570136951,0.18946563661480642,-0.4460497671072065,0.024655155607520296,0.049654768061820675,-0.12724470411067879,0,70,255.0,255.0,255.0
141,7.050000000000001,0.11833145309226493,3.302536005325573,-6.712161633525257,0.07522089261831492,0.1919876771031934,-0.45241735969821556,0.02318226857727177,0.051226851473656174,-0.12745899952967907,0,70,255.0,255.0,255.0
142,7.1000000000000005,0.12212086185597298,3.3122000777798295,-6.734941914549338,0.07634318387142229,0.19458832176217206,-0.4587956670601745,0.021709381547023274,0.05279893488549165,-0.12767329494867932,0,70,255.0,255.0,255.0
143,7.15,0.1259645440735486,3.3219961475713,-6.75804137881079,0.07739183077301724,0.19726757059174252,-0.4651846891930834,0.020236494516774773,0.05437101829732712,-0.12788759036767958,0,70,255.0,255.0,255.0
144,7.2,0.12985881752741613,3.3319281449085136,-6.781460562048163,0.07836683332309977,0.20002542359190476,-0.4715844260969424,0.018763607486526272,0.0559431017091626,-0.12810188578667986,0,70,255.0,255.0,255.0
145,7.25,0.1338,3.342,-6.8052,0.07926819152166986,0.20286188076265876,-0.47799487777175137,0.017290720456277775,0.05751518512099851,-0.12831618120567923,0,70,255.0,255.0,255.0
146,7.300000000000001,0.1377853639134965,3.352214085461729,-6.8292592703142505,0.08015318375503921,0.2056834865503747,-0.48435855878134015,0.018108968878495814,0.05534904638763735,-0.12623105917786848,0,70,255.0,255.0,255.0
147,7.3500000000000005,0.14181600024918914,3.362566543539427,-6.853634118276444,0.08107908840951945,0.20839678540142254,-0.4906179836895383,0.018927217300713835,0.053182907654276225,-0.12414593715005776,0,70,255.0,255.0,255.0
148,7.4,0.1458939546281336,3.37305195888626,-6.878319331081514,0.08204590548511058,0.21100177731580233,-0.4967731524963459,0.01974546572293186,0.0510167689209151,-0.12206081512224704,0,70,255.0,255.0,255.0
149,7.45,0.15002127267138535,3.3836649161553956,-6.903309695924389,0.08305363498181263,0.21349846229351402,-0.502824065201763,0.020563714145149882,0.04885063018755397,-0.11997569309443631,0,70,255.0,255.0,255.0
150,7.5,0.1542,3.3944,-6.9286,0.08410227689962556,0.21588684033455768,-0.5087707218057894,0.021381962567367796,0.04668449145419329,-0.1178905710666216,0,70,255.0,255.0,255.0
151,7.550000000000001,0.15843189125374949,3.4052532528275132,-6.954186085217745,0.08517437236152837,0.2182543766953075,-0.5146764051764263,0.021501855908744386,0.0480169629757982,-0.11833676375885123,0,70,255.0,255.0,255.0
152,7.6000000000000005,0.16271753714727072,3.416226548062466,-6.980068012344887,0.0862524624905,0.22068853663213753,-0.5206043981816746,0.02162174925012097,0.04934943449740309,-0.11878295645108086,0,70,255.0,255.0,255.0
153,7.65,0.16705723741391723,3.4273232168836616,-7.006246896863155,0.08733654728654047,0.2231893201450478,-0.5265547008215343,0.021741642591497558,0.05068190601900798,-0.1192291491433105,0,70,255.0,255.0,255.0
154,7.7,0.17145129178704255,3.438546590469905,-7.032723854254284,0.08842662674964975,0.2257567272340383,-0.5325273130960057,0.021861535932874144,0.052014377540612874,-0.11967534183554011,0,70,255.0,255.0,255.0
155,7.75,0.1759,3.4499,-7.0595,0.08952270087982787,0.2283907578991091,-0.5385222350050883,0.021981429274250286,0.05334684906221754,-0.12012153452777152,0,70,255.0,255.0,255.0
156,7.800000000000001,0.18040307107150608,3.46138570322822,-7.086575588814772,0.0905893267988473,0.23102700666839365,-0.5444878205129499,0.02068360748652616,0.05210310170916286,-0.1185018857866863,0,70,255.0,255.0,255.0
157,7.8500000000000005,0.18495785116172833,3.4730016642107118,-7.113947432344011,0.0915910616284805,0.2336010680700254,-0.550372423583757,0.019385785698802057,0.05085935435610821,-0.1168822370456011,0,70,255.0,255.0,255.0
158,7.9,0.18956109571619764,3.4847447735790946,-7.141611481465864,0.0925279053687275,0.23611294210400444,-0.55617604421751,0.018087963911077955,0.049615607003053556,-0.11526258830451591,0,70,255.0,255.0,255.0
159,7.95,0.19420956018044463,3.4966119219649845,-7.169563687058477,0.09339985801958829,0.23856262877033074,-0.5618986824142086,0.016790142123353852,0.0483718596499989,-0.11364293956343072,0,70,255.0,255.0,255.0
160,8.0,0.1989,3.5086,-7.1978,0.09420691958106286,0.2409501280690043,-0.5675403381738531,0.015492320335629417,0.047128112296941804,-0.11202329082234641,0,70,255.0,255.0,255.0
161,8.05,0.2036302244602267,3.520706334259609,-7.226317159523167,0.09501232044308237,0.2433015966311168,-0.573148312771773,0.016723714145150233,0.04693063018755783,-0.11229569309445182,0,70,255.0,255.0,255.0
162,8.1,0.20840225820581612,3.5329299950946873,-7.25511505827907,0.09587929099557789,0.24564319108776006,-0.5787699074832983,0.017955107954671003,0.04673314807817386,-0.11256809536655722,0,70,255.0,255.0,255.0
163,8.15,0.2132191797212924,3.5452704887999604,-7.284194377273391,0.09680783123854945,0.2479749114389342,-0.5844051223084288,0.01918650176419182,0.046535665968789885,-0.11284049763866265,0,70,255.0,255.0,255.0
164,8.200000000000001,0.21808406749117915,3.5577273216701566,-7.313555797511808,0.09779794117199708,0.2502967576846391,-0.5900539572471646,0.020417895573712635,0.046338183859405906,-0.11311289991076806,0,70,255.0,255.0,255.0
165,8.25,0.223,3.5703,-7.3432,0.09884962079592072,0.25260872982487476,-0.5957164122995056,0.02164928938323296,0.046140701750022384,-0.11338530218287346,0,70,255.0,255.0,255.0
166,8.3,0.2279688310875875,3.582988159733344,-7.3731269730925595,0.09988939142882339,0.25491860680714057,-0.6013509283999652,0.019941535932873507,0.04625437754060995,-0.11199534183550737,0,70,255.0,255.0,255.0
167,8.35,0.232987516015007,3.5957919554105398,-7.403333934539707,0.10084377438920807,0.2572341675789357,-0.6069159464830562,0.018233782482514116,0.04636805333119751,-0.11060538148814134,0,70,255.0,255.0,255.0
168,8.4,0.23805178539863298,3.608711671221063,-7.433817409440576,0.1017127696770748,0.25955541214026034,-0.6124114665487792,0.016526029032154665,0.046481729121785074,-0.10921542114077523,0,70,255.0,255.0,255.0
169,8.450000000000001,0.24315736985483932,3.6217475913543913,-7.464573922894297,0.10249637729242354,0.2618823404911143,-0.6178374885971339,0.014818275581795212,0.04659540491237264,-0.10782546079340914,0,70,255.0,255.0,255.0
170,8.5,0.2483,3.6349,-7.4956,0.10319459723525432,0.2642149526314976,-0.6231940126281201,0.01311052213143582,0.04670908070296109,-0.10643550044604311,0,70,255.0,255.0,255.0
171,8.55,0.25347685118942376,3.648169026807015,-7.526892548106596,0.10389411384162407,0.2665439761403215,-0.6285039736283575,0.014870142123353983,0.04645185964999401,-0.1059629395634495,0,70,255.0,255.0,255.0
172,8.6,0.2586908777341556,3.6615541832631546,-7.5584500035621,0.10468161144758971,0.26886013859649693,-0.633790306584465,0.016629762115272083,0.04619463859702693,-0.10549037868085591,0,70,255.0,255.0,255.0
173,8.65,0.2639464786841759,3.6750548263157876,-7.5902711849643065,0.10555709005315127,0.2711634400000242,-0.6390530114964431,0.018389382107190246,0.04593741754405984,-0.10501781779826232,0,70,255.0,255.0,255.0
174,8.700000000000001,0.26924805308946415,3.6886703129122798,-7.622354910911009,0.10652054965830875,0.273453880350903,-0.6442920883642914,0.020149002099108408,0.045680196491092756,-0.10454525691566871,0,70,255.0,255.0,255.0
175,8.75,0.2746,3.7024,-7.6547,0.1075719902630621,0.2757314596491335,-0.64950753718801,0.02190862209102651,0.04542297543812612,-0.10407269603307778,0,70,255.0,255.0,255.0
176,8.8,0.2800053641547181,3.7162429330385964,-7.687305234481059,0.10863015320468059,0.2779774886315719,-0.6546971770866064,0.020417895573711875,0.044418183859410286,-0.10351289991077389,0,70,255.0,255.0,255.0
177,8.85,0.2854617730483703,3.7301969115368414,-7.7201692512118925,0.10961377982043329,0.28017327803507447,-0.6598588271790874,0.018927169056397297,0.043413392280694484,-0.10295310378847003,0,70,255.0,255.0,255.0
178,8.9,0.29096549986466363,3.744259423515788,-7.753290650702199,0.1105228701103203,0.28231882785964135,-0.6649924874654534,0.017436442539082664,0.04240860070197864,-0.10239330766616614,0,70,255.0,255.0,255.0
179,8.950000000000001,0.29651281778730465,3.7584279569964902,-7.78666803346167,0.11135742407434157,0.28441413810527244,-0.6700981579457042,0.01594571602176803,0.0414038091232628,-0.10183351154386225,0,70,255.0,255.0,255.0
180,9.0,0.3021,3.7727,-7.8203,0.1121174417124971,0.28645920877196757,-0.6751758386198397,0.01445498950445323,0.04039901754454567,-0.10127371542155927,0,70,255.0,255.0,255.0
181,9.05,0.3077240921917044,3.787073641038599,-7.854184913969173,0.11284927333965333,0.2884900693333907,-0.680211318025214,0.014818275581795697,0.04083540491237754,-0.1001454607934093,0,70,255.0,255.0,255.0
182,9.1,0.313385230072363,3.8015493705894787,-7.888320191590331,0.11359926927067666,0.29054274926320534,-0.6851903846991806,0.015181561659138152,0.041271792280209406,-0.09901720616525936,0,70,255.0,255.0,255.0
183,9.15,0.31908432185716984,3.8161282796210596,-7.9227030122269015,0.11436742950556714,0.2926172485614116,-0.6901130386417398,0.015544847736480618,0.04170817964804128,-0.09788895153710939,0,70,255.0,255.0,255.0
184,9.200000000000001,0.32482227576131767,3.8308114591017604,-7.957330555242315,0.11515375404432475,0.2947135672280095,-0.6949792798528917,0.015908133813823087,0.04214456701587316,-0.0967606969089594,0,70,255.0,255.0,255.0
185,9.25,0.3306,3.8456,-7.9922,0.11595824288694945,0.2968317052629989,-0.6997891083326356,0.016271419891165317,0.04258095438370413,-0.09563244228080858,0,70,255.0,255.0,255.0
186,9.3,0.3364182670784648,3.860494502807008,-8.027308709642247,0.1167727534367063,0.2989422340348687,-0.7045535508125474,0.016309002099108218,0.041840196491085,-0.09494525691565857,0,70,255.0,255.0,255.0
187,9.35,0.3422773066621772,3.875493606105243,-8.062654782426785,0.11758914309686026,0.30101572491210743,-0.7092836340242015,0.016346584307051115,0.041099438598465904,-0.09425807155050858,0,70,255.0,255.0,255.0
188,9.4,0.34817721270665747,3.8905954579999746,-8.098236500390197,0.11840741186741141,0.3030521778947152,-0.7139793579675981,0.016384166514994015,0.04035868070584678,-0.09357088618535858,0,70,255.0,255.0,255.0
189,9.450000000000001,0.35411807916742516,3.905798206596471,-8.134052145569074,0.11922755974835968,0.30505159298269213,-0.7186407226427375,0.016421748722936915,0.03961792281322765,-0.09288370082020857,0,70,255.0,255.0,255.0
190,9.5,0.3601,3.9211,-8.1701,0.12004958673970509,0.307013970176038,-0.723267728049619,0.016459330930879812,0.03887716492060678,-0.09219651545505503,0,70,255.0,255.0,255.0
191,9.55,0.36612283949443675,3.9364995477333706,-8.206378647461836,0.1208597129135213,0.3089729945271346,-0.7278784787245918,0.015945716021768013,0.03948380912325745,-0.09223351154385018,0,70,255.0,255.0,255.0
192,9.600000000000001,0.372185543278928,3.9519978049895492,-8.242887878702534,0.1216441583418819,0.3109623510883638,-0.7324910792040041,0.015432101112656213,0.04009045332590812,-0.09227050763264533,0,70,255.0,255.0,255.0
193,9.65,0.3782868273162007,3.9675962883790423,-8.279627786212313,0.12240292302478692,0.31298203985972545,-0.7371055294878561,0.014918486203544431,0.040697097528558775,-0.09230750372144048,0,70,255.0,255.0,255.0
194,9.700000000000001,0.3844254075689824,3.9832965145123578,-8.316598462481394,0.12313600696223635,0.31503206084121965,-0.7417218295761483,0.01440487129443263,0.041303741731209445,-0.09234449981023563,0,70,255.0,255.0,255.0
195,9.75,0.3906,3.9991,-8.3538,0.12384341015423017,0.31711241403284635,-0.7463399794688799,0.013891256385321071,0.041910385933860095,-0.09238149589902811,0,70,255.0,255.0,255.0
196,9.8,0.39680957494378843,4.015007306259511,-8.391231900510407,0.12454039490920879,0.31916578785659006,-0.7509245342890808,0.01398813381382329,0.04022456701588612,-0.09100069690900517,0,70,255.0,255.0,255.0
197,9.850000000000001,0.40305412022211146,4.03101517393656,-8.428891302763084,0.12524222353561254,0.321134870734435,-0.7554400491597806,0.01408501124232551,0.038538748097912155,-0.08961989791898223,0,70,255.0,255.0,255.0
198,9.9,0.4093338780285401,4.047119388483856,-8.466774754760557,0.12594889603344134,0.32301966266638127,-0.759886524080979,0.014181888670827725,0.036852929179938244,-0.08823909892895933,0,70,255.0,255.0,255.0
199,9.950000000000001,0.41564909055664595,4.0633157353541005,-8.504878804505356,0.1266604124026953,0.32482016365242883,-0.7642639590526764,0.014278766099329945,0.03516711026196427,-0.08685829993893639,0,70,255.0,255.0,255.0
200,10.0,0.422,4.0796,-8.5432,0.1273767726433743,0.3265363736925777,-0.7685723540748726,0.014375643527830606,0.033481291343990804,-0.08547750094891171,0,70,255.0,255.0,255.0
201,10.05,0.4283868607304099,4.095968827228587,-8.581735350496544,0.12809870744964347,0.32821985404650805,-0.7728393841190994,0.014501748722935527,0.033857922813223244,-0.08520370082015667,0,70,255.0,255.0,255.0
202,10.100000000000001,0.4348099758326271,4.112422299264209,-8.620483710245137,0.12882694751566787,0.32992216597390006,-0.7770927241568883,0.014627853918040449,0.034234554282455684,-0.08492990069140162,0,70,255.0,255.0,255.0
203,10.15,0.44126966056963923,4.128961357685535,-8.65944439474546,0.1295614928414475,0.3316433094747536,-0.7813323741882394,0.014753959113145367,0.03461118575168812,-0.08465610056264658,0,70,255.0,255.0,255.0
204,10.200000000000001,0.4477662302044344,4.145586944071242,-8.698616719497187,0.1303023434269824,0.3333832845490689,-0.785558334213153,0.014880064308250288,0.03498781722092056,-0.08438230043389154,0,70,255.0,255.0,255.0
205,10.25,0.4543,4.1623,-8.738,0.1310494992722725,0.3351420911968457,-0.7897706042316286,0.015006169503354094,0.03536444869015298,-0.08410850030513473,0,70,255.0,255.0,255.0
206,10.3,0.4608709821345725,4.179101384826139,-8.777593097503422,0.13178477529221722,0.3369147959573797,-0.7939419292345135,0.014404871294433788,0.03554374173120572,-0.0827444998102571,0,70,255.0,255.0,255.0
207,10.350000000000001,0.4674779764473811,4.195991629006606,-8.817393056256373,0.1324899864017159,0.3386964653699663,-0.7980450542126544,0.013803573085513481,0.03572303477225845,-0.08138049931537945,0,70,255.0,255.0,255.0
208,10.4,0.4741194796929033,4.212971180774003,-8.857396466257612,0.13316513260076854,0.34048709943460553,-0.8020799791660513,0.013202274876593197,0.03590232781331117,-0.08001649882050187,0,70,255.0,255.0,255.0
209,10.450000000000001,0.4807939886256172,4.230040488360935,-8.897599917505898,0.13381021388937522,0.34228669815129736,-0.8060467040947046,0.012600976667672889,0.03608162085436391,-0.07865249832562424,0,70,255.0,255.0,255.0
210,10.5,0.4875,4.2472,-8.938,0.13442523026753583,0.34409526152004183,-0.8099452289986137,0.011999678458752605,0.03626091389541353,-0.07728849783074043,0,70,255.0,255.0,255.0
211,10.55,0.49423641073130054,4.264449633466858,-8.978593859489765,0.13503419138148787,0.34588096212397607,-0.8138088989428552,0.012358766099328561,0.03516711026195523,-0.07725829993892237,0,70,255.0,255.0,255.0
212,10.600000000000001,0.5010037183778495,4.28178718470937,-9.019380864729378,0.1356611068774687,0.3476119725462374,-0.817671058992506,0.012717853739904516,0.03407330662849694,-0.07722810204710431,0,70,255.0,255.0,255.0
213,10.65,0.5078028206587479,4.2992099192184545,-9.060360940224106,0.13630597675547831,0.34928829278682577,-0.8215317091475657,0.013076941380480458,0.032979502995038684,-0.07719790415528624,0,70,255.0,255.0,255.0
214,10.700000000000001,0.5146346152930977,4.316715102485024,-9.101534010479224,0.13696880101551676,0.35090992284574124,-0.8253908494080346,0.013436029021056414,0.03188569936158039,-0.07716770626346818,0,70,255.0,255.0,255.0
215,10.75,0.5215,4.3343,-9.1429,0.13764957965758398,0.3524768627229838,-0.8292484797739124,0.013795116661632578,0.03079189572812302,-0.07713750837164568,0,70,255.0,255.0,255.0
216,10.8,0.5283993749402257,4.3519624813064315,-9.18445866453752,0.13831845918183108,0.35402535554671016,-0.8330944749940513,0.012960064308250929,0.03114781722093048,-0.07670230043390873,0,70,255.0,255.0,255.0
217,10.850000000000001,0.5353311500412222,4.369702832155915,-9.226209084826122,0.1389455860884091,0.35559164444507685,-0.8369187098173033,0.012125011954869279,0.03150373871373794,-0.07626709249617178,0,70,255.0,255.0,255.0
218,10.9,0.5422932376721055,4.3875219423521825,-9.268150172845969,0.139530960377318,0.35717572941808395,-0.8407211842436685,0.011289959601487659,0.03185966020654538,-0.07583188455843483,0,70,255.0,255.0,255.0
219,10.950000000000001,0.5492835502019927,4.405420701698968,-9.310280840577208,0.14007458204855786,0.35877761046573137,-0.8445018982731468,0.010454907248106009,0.03221558169935285,-0.07539667662069788,0,70,255.0,255.0,255.0
220,11.0,0.5563,4.4234,-9.3526,0.1405764511021286,0.36039728758801914,-0.8482608519057383,0.0096198548947235,0.03257150319216073,-0.0749614686829636,0,70,255.0,255.0,255.0
221,11.05,0.5633412895077969,4.4414604413074175,-9.39510588236016,0.1410839718911885,0.3620176156891825,-0.8519572010809533,0.010680976667671664,0.03224162085437161,-0.07289249832563606,0,70,255.0,255.0,255.0
222,11.100000000000001,0.5704092814572631,4.459601486666971,-9.437793995966132,0.14164454876889576,0.3636214496734564,-0.855550101738302,0.011742098440619828,0.03191173851658248,-0.07082352796830851,0,70,255.0,255.0,255.0
223,11.15,0.5775066286528306,4.477822311372814,-9.480659168392025,0.14225818173525046,0.3652087895408407,-0.8590395538777842,0.012803220213567952,0.03158185617879336,-0.06875455761098105,0,70,255.0,255.0,255.0
224,11.200000000000001,0.5846359838989323,4.496122090719107,-9.523696227211946,0.14292487079025257,0.36677963529133567,-0.8624255574994001,0.013864341986516116,0.031251973841004234,-0.0666855872536535,0,70,255.0,255.0,255.0
225,11.25,0.5918,4.5145,-9.5669,0.14364461593390204,0.3683339869249411,-0.8657081126031494,0.01492546375946402,0.030922091503214233,-0.06461661689632514,0,70,255.0,255.0,255.0
226,11.3,0.5990002670285869,4.532954953463901,-9.610266606021849,0.14435365325341504,0.3698561816965607,-0.8689647206821424,0.013436029021055763,0.02996569936156773,-0.06564770626339006,0,70,255.0,255.0,255.0
227,11.350000000000001,0.6062341241297264,4.551484821176205,-9.653797331309354,0.14498821883600763,0.37133055686109795,-0.8722728832294885,0.011946594282647507,0.02900930721992123,-0.06667879563045498,0,70,255.0,255.0,255.0
228,11.4,0.6134978477165722,4.570087212156559,-9.697494753585936,0.1455483126816798,0.3727571124185528,-0.8756326002451879,0.010457159544239304,0.02805291507827476,-0.06770988499751987,0,70,255.0,255.0,255.0
229,11.450000000000001,0.620787714202279,4.588759735424609,-9.741361450575015,0.14603393479043156,0.3741358483689254,-0.8790438717292404,0.008967724805831048,0.027096522936628255,-0.06874097436458479,0,70,255.0,255.0,255.0
230,11.5,0.6281,4.6075,-9.7854,0.14644508516226293,0.3754667647122156,-0.8825066976816464,0.00747829006742351,0.026140130794981342,-0.06977206373165057,0,70,255.0,255.0,255.0
231,11.55,0.6354320423778562,4.626306144836982,-9.829611693552451,0.14684541509515123,0.37678165752457426,-0.8859439161904573,0.008534907248108207,0.026455581699366442,-0.06771667662078557,0,70,255.0,255.0,255.0
232,11.600000000000001,0.6427854220238325,4.645178428628212,-9.873992678796455,0.14729857588707376,0.37811232288215224,-0.889278365343725,0.009591524428792905,0.026771032603751542,-0.06566128950992058,0,70,255.0,255.0,255.0
233,11.65,0.6501627804808807,4.66411764000095,-9.91853781726423,0.1478045675380305,0.37945876078494944,-0.8925100451414494,0.010648141609477565,0.027086483508136628,-0.06360590239905564,0,70,255.0,255.0,255.0
234,11.700000000000001,0.6575667592919529,4.6831245675824595,-9.963241970488006,0.14836339004802152,0.38082097123296593,-0.8956389555836305,0.011704758790162261,0.027401934412521728,-0.061550515288190645,0,70,255.0,255.0,255.0
235,11.75,0.665,4.7022,-10.0081,0.14897504341704673,0.3821989542262016,-0.8986650966702684,0.012761375970847366,0.027717385316906817,-0.05949512817732927,0,70,255.0,255.0,255.0
236,11.8,0.6724643634599893,4.7213444671881755,-10.053107419768352,0.14959268636598078,0.3835771882051492,-0.9016276145560426,0.011944341986513984,0.02741197384099587,-0.059005587253637685,0,70,255.0,255.0,255.0
237,11.850000000000001,0.6799585877749447,4.740557464310952,-10.098262353504836,0.15016947761569815,0.3849401516103012,-0.9045656553956323,0.011127308002180602,0.02710656236508492,-0.0585160463299461,0,70,255.0,255.0,255.0
238,11.9,0.6874806303599054,4.759838227839642,-10.143563577357146,0.15070541716619884,0.3862878444416577,-0.9074792191890372,0.01031027401784725,0.026801150889173984,-0.058026505406254536,0,70,255.0,255.0,255.0
239,11.950000000000001,0.6950284486299109,4.779185994245555,-10.18900986747297,0.15120050501748286,0.38762026669921856,-0.9103683059362577,0.009493240033513865,0.026495739413263036,-0.057536964482562944,0,70,255.0,255.0,255.0
240,12.0,0.7026,4.7986,-10.2346,0.15165474116955024,0.388937418382984,-0.9132329156372936,0.008676206049180735,0.026190327937352542,-0.05704742355887227,0,70,255.0,255.0,255.0
241,12.05,0.7101937037821877,4.818079186410321,-10.28033302737415,0.15209583944092556,0.3902215896548332,-0.9160896255853791,0.00896772480583135,0.02517652293661515,-0.05722097436454341,0,70,255.0,255.0,255.0
242,12.100000000000001,0.71780982687639,4.837621314127984,-10.32620910718421,0.1525515136501334,0.39145507067664553,-0.918955013073748,0.009259243562481964,0.024162717935877757,-0.05739452517021455,0,70,255.0,255.0,255.0
243,12.15,0.7254490980794982,4.857223848640484,-10.372228673307196,0.15302176379717375,0.392637861448421,-0.9218290781024004,0.009550762319132568,0.023148912935140403,-0.057568075975885695,0,70,255.0,255.0,255.0
244,12.200000000000001,0.7331122461884045,4.876884255435325,-10.41839215962012,0.15350658988204663,0.39376996197015957,-0.9247118206713365,0.009842281075783183,0.022135107934403007,-0.05774162678155684,0,70,255.0,255.0,255.0
245,12.25,0.7408,4.8966,-10.4647,0.1540059919047521,0.39485137224186134,-0.9276032407805561,0.010133799832434454,0.02112130293366521,-0.05791517758722797,0,70,255.0,255.0,255.0
246,12.3,0.7485128214112606,4.9163691871705435,-10.511151670735055,0.15450395587031704,0.39592045317551633,-0.930445883102442,0.009784758790162712,0.021641934412534623,-0.055790515288205327,0,70,255.0,255.0,255.0
247,12.350000000000001,0.7562501047194967,4.936192479177119,-10.557742817758331,0.15498446778376837,0.3970155656831148,-0.9331822923093768,0.009435717747890971,0.022162565891404033,-0.05366585298918268,0,70,255.0,255.0,255.0
248,12.4,0.7640109773221022,4.956071177598421,-10.604468129414077,0.1554475276451061,0.39813670976465676,-0.9358124684013602,0.009086676705619244,0.022683197370273425,-0.0515411906901601,0,70,255.0,255.0,255.0
249,12.450000000000001,0.771794566616472,4.976006584013149,-10.65132229404655,0.1558931354543303,0.3992838854201422,-0.9383364113783927,0.008737635663347502,0.02320382884914284,-0.04941652839113746,0,70,255.0,255.0,255.0
250,12.5,0.7796,4.996,-10.6983,0.1563212912114409,0.4004570926495711,-0.9407541212404739,0.008388594621075551,0.02372446032801445,-0.04729186609210867,0,70,255.0,255.0,255.0
251,12.55,0.7874262105727703,5.016052064907508,-10.745397089685635,0.15672033707780564,0.40161659764310287,-0.9431348420048412,0.0075732400335139505,0.022655739413256076,-0.04793696448258428,0,70,255.0,255.0,255.0
252,12.600000000000001,0.7952713542456245,5.0361607691635495,-10.792614021782478,0.1570786152147923,0.40272266659089667,-0.9455478176887324,0.006757885445952349,0.021587018498497704,-0.04858206287305988,0,70,255.0,255.0,255.0
253,12.65,0.8031333926320933,5.056323440965835,-10.839952409036501,0.15739612562240088,0.4037752994929526,-0.9479930482921471,0.0059425308583907765,0.020518297583739367,-0.04922716126353546,0,70,255.0,255.0,255.0
254,12.700000000000001,0.8110102873457081,5.076537408512081,-10.887413864193684,0.15767286830063137,0.40477449634927065,-0.950470533815086,0.005127176270829175,0.019449576668980995,-0.04987225965401107,0,70,255.0,255.0,255.0
255,12.75,0.8189,5.0968,-10.935,0.1579088432494838,0.4057202571598508,-0.9529802742575483,0.0043118216832671585,0.01838085575422488,-0.05051735804448665,0,70,255.0,255.0,255.0
256,12.8,0.8268015362976585,5.117108953199427,-10.982711170522409,0.15816669581846013,0.4066371562520667,-0.9554467488781991,0.0060022810757860215,0.018295107934412247,-0.04814162678154631,0,70,255.0,255.0,255.0
257,12.850000000000001,0.8347180782980067,5.137463644168691,-11.03054269511177,0.15850907135706238,0.40754976795329206,-0.957794436935703,0.007692740468304885,0.018209360114599612,-0.04576589551860597,0,70,255.0,255.0,255.0
258,12.9,0.8426538521495252,5.1578638585382395,-11.078488634439926,0.1589359698652906,0.4084580922635267,-0.9600233384300597,0.009383199860823688,0.018123612294786984,-0.04339016425566571,0,70,255.0,255.0,255.0
259,12.950000000000001,0.850613084000696,5.178309381938527,-11.126543049178723,0.15944739134314476,0.4093621291827707,-0.9621334533612695,0.011073659253342551,0.01803786447497435,-0.04101443299272538,0,70,255.0,255.0,255.0
260,13.0,0.8586,5.1988,-11.1747,0.16004333579062482,0.4102618787110241,-0.9641247817293322,0.012764118645860245,0.01795211665516172,-0.038638701729786895,0,70,255.0,255.0,255.0
261,13.05,0.866617244236596,5.219335322294785,-11.222955028224737,0.16062887964835496,0.41114677734863164,-0.966086162482355,0.01065763566334496,0.017443828849139902,-0.03981652839112348,0,70,255.0,255.0,255.0
262,13.100000000000001,0.8746611325623503,5.239914254161692,-11.271309597770454,0.16110909935695933,0.4120062615959381,-0.9681064345684447,0.008551152680829673,0.01693554104311808,-0.04099435505246006,0,70,255.0,255.0,255.0
263,13.15,0.8827263987698064,5.260535524881207,-11.3197666532038,0.16148399491643795,0.41284033145294347,-0.9701855979876011,0.006444669698314461,0.01642725323709628,-0.04217218171379661,0,70,255.0,255.0,255.0
264,13.200000000000001,0.8908077766515086,5.281197863733815,-11.368329139091433,0.16175356632679078,0.41364898691964774,-0.9723236527398244,0.004338186715799174,0.01591896543107446,-0.04335000837513319,0,70,255.0,255.0,255.0
265,13.25,0.8989,5.3019,-11.417,0.16191781358801785,0.4144322279960509,-0.9745205988251143,0.002231703733283963,0.015410677625051772,-0.04452783503646973,0,70,255.0,255.0,255.0
266,13.3,0.9069990867559582,5.322640957621435,-11.465780716578644,0.16205378558812064,0.4152077343534015,-0.9766886011923768,0.0032071762708273306,0.015609576668973715,-0.04219225965402856,0,70,255.0,255.0,255.0
267,13.350000000000001,0.9151061914525936,5.3434209391845435,-11.514666913806419,0.16223853121510057,0.41599318566294824,-0.9787398247905172,0.004182648808370698,0.015808475712895658,-0.039856684271587395,0,70,255.0,255.0,255.0
268,13.4,0.9232237527712495,5.364240441936933,-11.563652752744874,0.1624720504689577,0.4167885819246911,-0.9806742696195355,0.005158121345914031,0.016007374756817596,-0.03752110888914631,0,70,255.0,255.0,255.0
269,13.450000000000001,0.9313542093932706,5.385099963126216,-11.612732394455556,0.16275434334969197,0.41759392313863003,-0.9824919356794318,0.006133593883457399,0.016206273800739537,-0.03518553350670514,0,70,255.0,255.0,255.0
270,13.5,0.9395,5.406,-11.6619,0.16308540985730346,0.41840920930476505,-0.984192822970206,0.0071090664210005095,0.016405172844660587,-0.0328499581242605,0,70,255.0,255.0,255.0
271,13.55,0.9476632087395717,5.426940847219473,-11.711150905460695,0.16344397799916208,0.4192222852377565,-0.9858474327481311,0.0072336592533442726,0.016117864474995698,-0.03333443299274262,0,70,255.0,255.0,255.0
272,13.600000000000001,0.9558445016272767,5.447921989100135,-11.76048514700387,0.1638087757826379,0.42002099575226465,-0.9875262662694804,0.0073582520856880365,0.01583055610533081,-0.03381890786122474,0,70,255.0,255.0,255.0
273,13.65,0.9640441901451957,5.468942707371058,-11.809903935816697,0.1641798032077309,0.4208053408482895,-0.9892293235342536,0.007482844918031795,0.01554324773566593,-0.03430338272970684,0,70,255.0,255.0,255.0
274,13.700000000000001,0.97226258577541,5.4900022837613225,-11.859408483086353,0.16455706027444106,0.42157532052583124,-0.990956604542451,0.007607437750375559,0.015255939366001042,-0.034787857598188955,0,70,255.0,255.0,255.0
275,13.75,0.9805,5.5111,-11.909,0.16494054698276844,0.4223309347848896,-0.9927081092940725,0.007732030582718874,0.01496863099633483,-0.0352723324666675,0,70,255.0,255.0,255.0
276,13.8,0.9887560782857557,5.532234853500671,-11.958678861578584,0.16529030241523138,0.4230551246955745,-0.9944336678151172,0.006258186715798854,0.013998965431061435,-0.033750008375120696,0,70,255.0,255.0,255.0
277,13.850000000000001,0.997027802038301,5.553404704414921,-12.008442098178104,0.16556636565434832,0.4237308313279957,-0.9960831101315847,0.004784342848878834,0.013029299865788041,-0.0322276842835739,0,70,255.0,255.0,255.0
278,13.9,1.005311486647968,5.574607128578833,-12.058285903988333,0.16576873670011927,0.4243580546821533,-0.9976564362434747,0.003310498981958865,0.01205963430051468,-0.030705360192027152,0,70,255.0,255.0,255.0
279,13.950000000000001,1.0136034475050906,5.595839701828498,-12.108206473199042,0.16589741555254423,0.4249367947580472,-0.9991536461507873,0.0018366551150388452,0.011089968735241287,-0.029183036100480356,0,70,255.0,255.0,255.0
280,14.0,1.0219,5.6171,-12.1582,0.16595240221162316,0.42546705155567743,-1.0005747398535225,0.00036281124811843313,0.010120303169967038,-0.02766071200893272,0,70,255.0,255.0,255.0
281,14.05,1.030198878117406,5.638386138777842,-12.208263248224979,0.16601881233991247,0.425981215979945,-1.0019538959914123,0.0022935938834535204,0.010446273800735466,-0.027505533506654342,0,70,255.0,255.0,255.0
282,14.100000000000001,1.038503490219521,5.659698393240187,-12.258395260283725,0.16618176159996853,0.426511678935751,-1.0033252932041878,0.004224376518788608,0.010772244431503895,-0.027350355004375965,0,70,255.0,255.0,255.0
283,14.15,1.0468186632629326,5.68103757831361,-12.308595648229979,0.1664412499917913,0.4270584404230954,-1.00468893149185,0.0061551591541236265,0.011098215062272312,-0.027195176502097594,0,70,255.0,255.0,255.0
284,14.200000000000001,1.0551492242042295,5.702404508924689,-12.358864024117493,0.16679727751538087,0.4276215004419782,-1.0060448108543978,0.008085941789458713,0.011424185693040741,-0.027039997999819217,0,70,255.0,255.0,255.0
285,14.25,1.0635,5.7238,-12.4092,0.16724984417073718,0.4282008589923994,-1.0073929312918317,0.010016724424793289,0.011750156323807825,-0.02688481949753374,0,70,255.0,255.0,255.0
286,14.3,1.0718740092446204,5.745224591387959,-12.459602545521506,0.1676904482251165,0.42878001138464483,-1.0086947482192252,0.007607437750379519,0.011415939366009105,-0.025187857598207207,0,70,255.0,255.0,255.0
287,14.350000000000001,1.0802670370836165,5.766677722624333,-12.510068060687006,0.16801058794577514,0.42934245292900036,-1.0099117170516525,0.005198151075965749,0.011081722408210383,-0.023490895698880673,0,70,255.0,255.0,255.0
288,14.4,1.088673060300302,5.788158558166727,-12.560592303091756,0.1682102633327131,0.4298881836254659,-1.0110438377891133,0.0027888644015520653,0.010747505450411674,-0.0217939337995542,0,70,255.0,255.0,255.0
289,14.450000000000001,1.0970860556779922,5.8096662624727475,-12.611171030331004,0.16828947438593037,0.4304172034740415,-1.0120911104316077,0.0003795777271382965,0.010413288492612954,-0.020096971900227665,0,70,255.0,255.0,255.0
290,14.5,1.1055,5.8312,-12.6618,0.16824822110542692,0.4309295124747272,-1.013053534979136,-0.002029708947275388,0.010079071534814688,-0.018400010000894085,0,70,255.0,255.0,255.0
291,14.55,1.1139106849041134,5.852758695670322,-12.712476169689,0.16819539475962106,0.4314107384814783,-1.014003111131671,-8.33448849588414e-05,0.009169968735228538,-0.019583036100500467,0,70,255.0,255.0,255.0
292,14.600000000000001,1.1223211614460142,5.874340316262482,-12.763201296968251,0.16823988661693104,0.4318465093482501,-1.0150118385891862,0.0018630191773577054,0.00826086593564239,-0.02076606220010685,0,70,255.0,255.0,255.0
293,14.65,1.1307362955358584,5.895942589019481,-12.813978339403,0.16838169667735683,0.4322368250750425,-1.0160797173516816,0.003809383239674183,0.007351763136056271,-0.02194908829971319,0,70,255.0,255.0,255.0
294,14.700000000000001,1.1391609530838018,5.91756324118432,-12.864810254558503,0.16862082494089844,0.43258168566185573,-1.0172067474191575,0.00575574730199073,0.006442660336470122,-0.023132114399319573,0,70,255.0,255.0,255.0
295,14.75,1.1476,5.9392,-12.9157,0.16895727140755593,0.4328810911086896,-1.0183929287916138,0.007702111364306985,0.00553355753688356,-0.02431514049892769,0,70,255.0,255.0,255.0
296,14.8,1.156056851138927,5.960851025930754,-12.966648775722495,0.16930397273639997,0.433161034689438,-1.0195328072540828,0.006165941789454199,0.005664185693052827,-0.021279997999830824,0,70,255.0,255.0,255.0
297,14.850000000000001,1.1645291171323278,5.9825162123257405,-13.017650751439994,0.16957386558650137,0.4334475096779949,-1.0205209285915968,0.004629772214601414,0.005794813849222095,-0.018244855500733962,0,70,255.0,255.0,255.0
298,14.9,1.1730129575562647,6.00419588575535,-13.068698339296239,0.1697669499578601,0.4337405160743602,-1.0213572928041563,0.003093602639748683,0.005925442005391358,-0.015209713001637204,0,70,255.0,255.0,255.0
299,14.950000000000001,1.1815045319868014,6.0258903727899735,-13.119783951434993,0.16988322585047622,0.43404005387853406,-1.0220418998917606,0.0015574330648958972,0.006056070161560625,-0.01217457050254034,0,70,255.0,255.0,255.0
300,15.0,1.19,6.0476,-13.1709,0.16992269326434967,0.43434612309051635,-1.0225747498544104,2.1263490042056077e-05,0.006186698317728556,-0.009139428003441807,0,70,255.0,255.0,255.0
301,15.05,1.1984963105401787,6.069325200606663,-13.222040727421016,0.16993271429477916,0.4346651227607747,-1.0230656598520018,0.0003795777271380858,0.006573288492604595,-0.010496971900211014,0,70,255.0,255.0,255.0
302,15.100000000000001,1.2069935700246757,6.091066834434557,-13.273207697271783,0.16996065103706348,0.43500345193977685,-1.0236244470444316,0.0007378919642341155,0.006959878667480634,-0.01185451579698022,0,70,255.0,255.0,255.0
303,15.15,1.215492674239083,6.112825867959119,-13.324404303412038,0.17000650349120258,0.43536111062752275,-1.0242511114316997,0.0010962062013301324,0.00734646884235666,-0.013212059693749377,0,70,255.0,255.0,255.0
304,15.200000000000001,1.2239945189689936,6.1346032676557884,-13.375633939701533,0.1700702716571965,0.4357380988240125,-1.0249456530138066,0.001454520438426162,0.007733059017232699,-0.014569603590518582,0,70,255.0,255.0,255.0
305,15.25,1.2325,6.1564,-13.4269,0.17015195553504522,0.436134416529246,-1.0257080717907514,0.0018128346755224012,0.00811964919210606,-0.015927147487285964,0,70,255.0,255.0,255.0
306,15.3,1.2410099067003577,6.178216171642595,-13.478204314593444,0.17024517008448306,0.4364984742674604,-1.0264445533379163,0.0019157473019913345,0.006442660336469406,-0.013532114399310268,0,70,255.0,255.0,255.0
307,15.350000000000001,1.2495246027689706,6.200048449936034,-13.529542459472887,0.17034353026524438,0.43677868256289293,-1.0270612832306825,0.0020186599284602678,0.004765671480832753,-0.011137081311334573,0,70,255.0,255.0,255.0
308,15.4,1.2580443454874042,6.2218926424081715,-13.580908447055604,0.17044703607732908,0.43697504141554366,-1.0275582614690497,0.002121572554929197,0.0030886826251961584,-0.008742048223358962,0,70,255.0,255.0,255.0
309,15.450000000000001,1.2665693921372254,6.243744556586875,-13.632296289758884,0.17055568752073727,0.4370875508254126,-1.0279354880530183,0.0022244851813981305,0.001411693769559505,-0.006347015135383265,0,70,255.0,255.0,255.0
310,15.5,1.2751,6.2656,-13.6837,0.1706694845954689,0.4371162107924996,-1.028192962982588,0.0023273978078661717,-0.0002652950860779768,-0.003951982047407654,0,70,255.0,255.0,255.0
311,15.55,1.2836360626583903,6.287455712822954,-13.735114814205213,0.17076660536728805,0.437116980169387,-1.0284041267963364,0.0015574330648992054,0.00029607016157396607,-0.004494570502524916,0,70,255.0,255.0,255.0
312,15.600000000000001,1.2921760188994431,6.309312165821312,-13.786540864836683,0.1708252279019588,0.437145817808657,-1.0286424200328406,0.000787468321932239,0.0008574354092259089,-0.005037158957642178,0,70,255.0,255.0,255.0
313,15.65,1.3007179438113006,6.331170762408193,-13.837979508365542,0.17084535219948127,0.43720272371030966,-1.0289078426921006,1.7503578965300057e-05,0.0014188006568778317,-0.005579747412759421,0,70,255.0,255.0,255.0
314,15.700000000000001,1.3092599124821056,6.3530329059967166,-13.889432101262935,0.17082697825985535,0.4372876978743448,-1.0292003947741166,-0.0007524611640016663,0.0019801659045297747,-0.006122335867876683,0,70,255.0,255.0,255.0
315,15.75,1.3178,6.3749,-13.9409,0.1707701060830811,0.43740074030076254,-1.0295200762788883,-0.0015224259069681612,0.0025415311521821415,-0.006664924322993926,0,70,255.0,255.0,255.0
316,15.8,1.3263370426660812,6.39677297706559,-13.99238362858571,0.1707204084463675,0.4375136050549974,-1.0298109394767265,-0.00046547956157730504,0.0019730590172115565,-0.0049696035905391275,0,70,255.0,255.0,255.0
317,15.850000000000001,1.3348729216332582,6.418650886778721,-14.043879681180396,0.17072355812692336,0.43759804620248366,-1.0300170366379422,0.0005914667838135511,0.0014045868822409717,-0.0032742828580843283,0,70,255.0,255.0,255.0
318,15.9,1.3434102792673948,6.440532307959058,-14.095383919482225,0.17077955512474882,0.43765406374322147,-1.030138367762535,0.00164841312920437,0.000836114747270407,-0.0015789621256295898,0,70,255.0,255.0,255.0
319,15.950000000000001,1.3519517579343543,6.462415819426265,-14.146892105189373,0.1708883994398438,0.43768165767721073,-1.0301749328505052,0.002705359474595226,0.0002676426122998222,0.00011635860682520944,0,70,255.0,255.0,255.0
320,16.0,1.3605,6.4843,-14.1984,0.1710500910722083,0.43768082800445146,-1.0301267319018528,0.003762305819986267,-0.0003008295226698543,0.0018116793392817243,0,70,255.0,255.0,255.0
321,16.05,1.369056566677286,6.506183578914692,-14.249904271451948,0.1711997608472428,0.4376605996106238,-1.0300481152967558,0.002224485181393621,-0.000508306230436076,0.0013329848646005547,0,70,255.0,255.0,255.0
322,16.1,1.377618694567526,6.528065887063806,-14.301405210441738,0.17127253959034766,0.43762999738140784,-1.0299934334153928,0.0006866645428009752,-0.0007157829382022976,0.0008542903899193851,0,70,255.0,255.0,255.0
323,16.150000000000002,1.3861825391191225,6.549946405755576,-14.352904013705555,0.17126842730152292,0.43758902131680355,-1.0299626862577638,-0.0008511560957916711,-0.0009232596459685194,0.00037559591523821556,0,70,255.0,255.0,255.0
324,16.2,1.394744255780479,6.57182461629823,-14.404401877979575,0.1711874239807685,0.43753767141681105,-1.0299558738238688,-0.002388976734384207,-0.0011307363537347262,-0.00010309855944291998,0,70,255.0,255.0,255.0
325,16.25,1.4033,6.5937,-14.4559,0.1710295296280845,0.43747594768143006,-1.0299729961137079,-0.003926797372977298,-0.0013382130614996157,-0.0005817930341152078,0,70,255.0,255.0,255.0
326,16.3,1.411847090624775,6.615571907275648,-14.507398485606492,0.17086454816466012,0.43739599650250605,-1.0299485993362572,-0.0026724611639972018,-0.0018598340954607624,0.0015576641321416976,0,70,255.0,255.0,255.0
327,16.35,1.4203875000966402,6.637439164966057,-14.558893077052655,0.17076228351168476,0.437289964271884,-1.0298172297004937,-0.001418124955017106,-0.002381455129421909,0.003697121298398603,0,70,255.0,255.0,255.0
328,16.400000000000002,1.4289243642561182,6.659300469018643,-14.61037842569557,0.1707227356691584,0.4371578509895639,-1.0295788872064173,-0.00016378874603701016,-0.0029030761633830563,0.005836578464655509,0,70,255.0,255.0,255.0
329,16.45,1.4374608189437301,6.6811545153808165,-14.661849182892324,0.17074590463708106,0.43699965665554563,-1.0292335718540282,0.0010905474629429963,-0.0034246971973441657,0.007976035630912263,0,70,255.0,255.0,255.0
330,16.5,1.446,6.703,-14.7133,0.17083179041545268,0.4368153812698295,-1.028781283643326,0.0023448836719219823,-0.00394631823130398,0.010115492797169168,0,70,255.0,255.0,255.0
331,16.55,1.4545438708236138,6.724835991982721,-14.764726586122084,0.17091004649411562,0.4366274143793542,-1.0282854873582261,0.0007853594745951264,-0.0035723573877079087,0.009716358606834768,0,70,255.0,255.0,255.0
332,16.6,1.463089705045914,6.7466630530719724,-14.81612888134765,0.1709103263629122,0.43645814553105866,-1.0278096477826426,-0.0007741647227317294,-0.0031983965441118372,0.00931722441650037,0,70,255.0,255.0,255.0
333,16.650000000000002,1.4716336038564075,6.768482118169864,-14.867507883512173,0.17083263002184243,0.43630757472494297,-1.027353764916576,-0.0023336889200585853,-0.0028244357005157658,0.00891809022616597,0,70,255.0,255.0,255.0
334,16.7,1.4801716684446,6.790294122178502,-14.91886459045113,0.17067695747090636,0.43617570196100713,-1.026917838760026,-0.00389321311738533,-0.0024504748569197207,0.0085189560358316,0,70,255.0,255.0,255.0
335,16.75,1.4887,6.8121,-14.9702,0.1704433087101039,0.4360625272392511,-1.0265018693129926,-0.005452737314713074,-0.002076514013321429,0.008119821845495423,0,70,255.0,255.0,255.0
336,16.8,1.4972158260807702,6.8339001247934705,-15.021514369905178,0.17019926585887646,0.4359343459800748,-1.026061451230841,-0.004308976734384313,-0.0030507363537296468,0.009496901440571668,0,70,255.0,255.0,255.0
337,16.85,1.5057208797197048,6.855692622746058,-15.072804997556757,0.17001241103666548,0.43575745360387813,-1.0255521791689355,-0.003165216154055551,-0.004024958694137865,0.010873981035647911,0,70,255.0,255.0,255.0
338,16.900000000000002,1.514218020318254,6.8774750583019095,-15.124068440255746,0.1698827442434709,0.43553185011066103,-1.0249740531272762,-0.0020214555737267893,-0.004999181034546082,0.012251060630724156,0,70,255.0,255.0,255.0
339,16.95,1.5227101072778684,6.899244995905173,-15.175301255303152,0.16981026547929282,0.43525753550042356,-1.024327073105863,-0.0008776949933981086,-0.005973403374954231,0.013628140225800302,0,70,255.0,255.0,255.0
340,17.0,1.5312,6.921,-15.2265,0.16979497474413108,0.43493450977316556,-1.0236112391046963,0.0002660655869295425,-0.006947625715365557,0.015005219820874771,0,70,255.0,255.0,255.0
341,17.05,1.5396896248533052,6.942737908843397,-15.277661534257204,0.169780890070378,0.4345792017003476,-1.0228447077184022,-0.0008294525370532368,-0.007264697197352903,0.015656035630895113,0,70,255.0,255.0,255.0
342,17.1,1.548177176075268,6.964457655943801,-15.328783928425334,0.16971202949042577,0.4342080400534303,-1.022045635541607,-0.001924970661036016,-0.007581768679340248,0.016306851440915458,0,70,255.0,255.0,255.0
343,17.150000000000002,1.556659914870578,6.986158448622506,-15.379865555464859,0.16958839300427436,0.4338210248324136,-1.0212140225743105,-0.0030204887850187956,-0.007898840161327594,0.0169576672509358,0,70,255.0,255.0,255.0
344,17.2,1.565135102443925,7.007839494200806,-15.430904788336253,0.1694099806119239,0.4334181560372975,-1.0203498688165131,-0.0041160069090014975,-0.008215911643314916,0.017608483060956096,0,70,255.0,255.0,255.0
345,17.25,1.5736,7.0295,-15.4819,0.16917679231337426,0.4329994336680821,-1.0194531742682147,-0.005211525032984499,-0.00853298312530315,0.01825929887098532,0,70,255.0,255.0,255.0
346,17.3,1.5820528745060092,7.051139439832943,-15.532849893066004,0.16894917385961478,0.43258084721852685,-1.0185437178955448,-0.0038932131173942154,-0.008210474856904865,0.018118956035812414,0,70,255.0,255.0,255.0
347,17.35,1.5904960159792247,7.0727583534787435,-15.583754488741917,0.16878747100163483,0.43217838618239157,-1.0176412786646334,-0.002574901201803932,-0.00788796658850658,0.01797861320063951,0,70,255.0,255.0,255.0
348,17.400000000000002,1.5989327201994359,7.094357547208072,-15.634614137884832,0.16869168373943438,0.4317920505596762,-1.0167458565754806,-0.001256589286213649,-0.0075654583201082955,0.017838270365466608,0,70,255.0,255.0,255.0
349,17.45,1.6073662829464308,7.1159378272916,-15.685429191351826,0.16866181207301348,0.4314218403503808,-1.015857451628087,6.172262937654063e-05,-0.0072429500517100336,0.017697927530293714,0,70,255.0,255.0,255.0
350,17.5,1.6158,7.1375,-15.7362,0.16869785600237203,0.43106775555450516,-1.0149760638224514,0.0013800345449666018,-0.006920441783313969,0.01755758469512081,0,70,255.0,255.0,255.0
351,17.55,1.624235677122659,7.159044331824833,-15.786926093478783,0.16871041449116123,0.4306974094255485,-1.014052420699428,-0.0008776949933986134,-0.007893403374951738,0.019388140225817477,0,70,255.0,255.0,255.0
352,17.6,1.632669160007834,7.180568930141229,-15.837603716607001,0.16861008650303216,0.43027841521701,-1.0130372497998696,-0.0031354245317638287,-0.008866364966589508,0.021218695756514146,0,70,255.0,255.0,255.0
353,17.650000000000002,1.6410948043316804,7.202071362545208,-15.88822829299583,0.16839687203798484,0.4298107729288896,-1.0119305511237766,-0.005393154070129043,-0.009839326558227276,0.023049251287210814,0,70,255.0,255.0,255.0
354,17.7,1.6495069657703503,7.223549196632791,-15.938795246256436,0.16807077109601928,0.42929448256118724,-1.0107323246711486,-0.007650883608494098,-0.010812288149864976,0.024879806817907354,0,70,255.0,255.0,255.0
355,17.75,1.6579,7.245,-15.9893,0.16763178367713544,0.4287295441139031,-1.0094425704419858,-0.009908613146858869,-0.011785249741504078,0.026710362348607575,0,70,255.0,255.0,255.0
356,17.8,1.6662700170033555,7.2664216328677265,-16.039738533018866,0.16718516817573914,0.428133515079282,-1.0080945993067463,-0.007956006908992268,-0.012055911643340793,0.027208483060973884,0,70,255.0,255.0,255.0
357,17.85,1.674620143989439,7.287813125956344,-16.090109044830083,0.1668361829862362,0.427523952949569,-1.0067217221358884,-0.00600340067112567,-0.012326573545177508,0.02770660377334019,0,70,255.0,255.0,255.0
358,17.900000000000002,1.6829552624738444,7.3091738026111,-16.140410290131864,0.16658482810862657,0.4269008577247642,-1.0053239389294122,-0.004050794433259069,-0.01259723544701422,0.0282047244857065,0,70,255.0,255.0,255.0
359,17.95,1.691280253972166,7.330502986177235,-16.190641023622426,0.1664311035429103,0.42626422940486763,-1.0039012496873179,-0.0020981881953926083,-0.012867897348850917,0.02870284519807277,0,70,255.0,255.0,255.0
360,18.0,1.6996,7.3518,-16.2408,0.16637500928908733,0.42561406798987916,-1.0024536544096048,-0.00014558195752556458,-0.013138559250687631,0.02920096591044974,0,70,255.0,255.0,255.0
361,18.05,1.7079178548639187,7.373064336704264,-16.290886174445752,0.1663249128058835,0.4249605302573195,-1.000993182073587,-0.00185827737062765,-0.013002950051697491,0.02921792753026935,0,70,255.0,255.0,255.0
362,18.1,1.7162310640344112,7.394296166033398,-16.34089930407268,0.16618918155202456,0.4243137729847094,-0.9995318616565778,-0.0035709727837297356,-0.01286734085270735,0.029234889150088962,0,70,255.0,255.0,255.0
363,18.150000000000002,1.7245353457729438,7.415495827010401,-16.390839346476728,0.16596781552751053,0.42367379617204876,-0.9980696931585777,-0.005283668196831821,-0.01273173165371721,0.029251850769908574,0,70,255.0,255.0,255.0
364,18.2,1.7328264183409843,7.436663658658269,-16.44070625925385,0.1656608147323414,0.4230405998193377,-0.996606676579587,-0.006996363609933784,-0.012596122454727078,0.029268812389728182,0,70,255.0,255.0,255.0
365,18.25,1.7411,7.4578,-16.4905,0.16526817916651718,0.42241418392657615,-0.9951428119196051,-0.008709059023036092,-0.012460513255736494,0.02928577400954957,0,70,255.0,255.0,255.0
366,18.3,1.74935296354097,7.47890502031522,-16.540219969198134,0.16485918060072882,0.4217843638914362,-0.9936446723989172,-0.007650883608498512,-0.012732288149860875,0.030639806817962186,0,70,255.0,255.0,255.0
367,18.35,1.7575867998729189,7.499978209910066,-16.589863338879223,0.1645030908056673,0.42114095511159005,-0.9920788312378088,-0.006592708193960932,-0.013004063043985256,0.0319938396263748,0,70,255.0,255.0,255.0
368,18.400000000000002,1.7658041544343823,7.5210188893473005,-16.63942672396124,0.1641999097813327,0.42048395758703766,-0.9904452884362797,-0.0055345327794233505,-0.013275837938109637,0.03334787243478742,0,70,255.0,255.0,255.0
369,18.45,1.774007672663897,7.54202637918969,-16.68890673936217,0.16394963752772498,0.41981337131777907,-0.9887440439943302,-0.004476357364885845,-0.013547612832233998,0.03470190524319994,0,70,255.0,255.0,255.0
370,18.5,1.7822,7.563,-16.7383,0.1637522740448441,0.41912919630381423,-0.9869750979119599,-0.003418181950349375,-0.013819387726357935,0.03605593805161522,0,70,255.0,255.0,255.0
371,18.55,1.7903830909722023,7.583938782034857,-16.787603548761723,0.16356636479120057,0.41841401417693413,-0.985164128330718,-0.004018188195392467,-0.014787897348846104,0.03638284519806146,0,70,255.0,255.0,255.0
372,18.6,1.7985561364739162,7.604840594326341,-16.83681614041045,0.16335045522530484,0.4176504065689296,-0.9833368133921537,-0.004618194440435559,-0.015756406971334274,0.03670975234450769,0,70,255.0,255.0,255.0
373,18.650000000000002,1.8067176364895288,7.625703015600398,-16.885936957678318,0.163104545347157,0.4168383734798007,-0.9814931530962672,-0.0052182006854786505,-0.016724916593822445,0.03703665949095393,0,70,255.0,255.0,255.0
374,18.7,1.814866091003427,7.646523624582968,-16.934965183297454,0.162828635156757,0.4159779149095474,-0.9796331474430584,-0.005818206930521699,-0.017693426216310544,0.03736356663740014,0,70,255.0,255.0,255.0
375,18.75,1.823,7.6673,-16.9839,0.1625227246541048,0.41506903085816965,-0.9777567964325272,-0.006418213175565013,-0.018661935838799604,0.03769047378384638,0,70,255.0,255.0,255.0
376,18.8,1.8311178725702217,7.688030251545354,-17.03274023575498,0.16218736023446745,0.4141435794008314,-0.9758428142781901,-0.006996363609929243,-0.0183561224547307,0.03886881238963779,0,70,255.0,255.0,255.0
377,18.85,1.8392182542314182,7.70871461278457,-17.081483299478982,0.16182308829311187,0.4132334186126966,-0.9738699151935634,-0.007574514044293473,-0.0180503090706618,0.0400471509954292,0,70,255.0,255.0,255.0
378,18.900000000000002,1.8472996996075042,7.729353848251111,-17.130126245325496,0.1614299088300381,0.41233854849376517,-0.9718380991786472,-0.008152664478657702,-0.017744495686592896,0.04122548960122062,0,70,255.0,255.0,255.0
379,18.95,1.8553607633223932,7.749948722478433,-17.178666127448007,0.16100782184524612,0.4114589690440373,-0.9697473662334414,-0.008730814913021892,-0.017438682302524017,0.04240382820701195,0,70,255.0,255.0,255.0
380,19.0,1.8634,7.7705,-17.2271,0.1605568273387359,0.4105946802635128,-0.9675977163579459,-0.009308965347386122,-0.017132868918454225,0.04358216681281135,0,70,255.0,255.0,255.0
381,19.05,1.8714166187469121,7.791008211783731,-17.275425108218368,0.16011619427092913,0.4097316682197454,-0.9654006145565444,-0.008316357364885927,-0.017387612832241665,0.04430190524324901,0,70,255.0,255.0,255.0
382,19.1,1.8794124466004118,7.811472954535381,-17.323639461673633,0.1597251916022473,0.4088559189802886,-0.9631675258336209,-0.00732374938238573,-0.017642356746029104,0.04502164367368666,0,70,255.0,255.0,255.0
383,19.150000000000002,1.8873899650804558,7.831893591395166,-17.371741261019707,0.15938381933269052,0.4079674325451425,-0.9608984501891756,-0.006331141399885534,-0.017897100659816544,0.04574138210412432,0,70,255.0,255.0,255.0
384,19.200000000000003,1.8953516557069998,7.8522694855033,-17.419728706910522,0.15909207746225873,0.40706620891430695,-0.9585933876232083,-0.005338533417385338,-0.018151844573603984,0.04646112053456197,0,70,255.0,255.0,255.0
385,19.25,1.9033,7.8726,-17.4676,0.158849965990952,0.4061522480877821,-0.9562523381357196,-0.004345925434885656,-0.01840658848739052,0.04718085896500046,0,70,255.0,255.0,255.0
386,19.3,1.911236452442131,7.892884101319726,-17.51535373137155,0.15859586268181677,0.40520174772018924,-0.9538987274956584,-0.005818206930522128,-0.019613426216323334,0.046963566637445275,0,70,255.0,255.0,255.0
387,19.35,1.9191583593669355,7.913119169073912,-17.562990053826507,0.1582681452978998,0.4041909054661498,-0.9515559814719751,-0.007290488426158601,-0.020820263945256146,0.04674627430989008,0,70,255.0,255.0,255.0
388,19.400000000000002,1.9270620400706748,7.933302186168235,-17.610509510595687,0.15786681383920093,0.4031197213256636,-0.9492241000646694,-0.008762769921795074,-0.022027101674188962,0.0465289819823349,0,70,255.0,255.0,255.0
389,19.450000000000003,1.9349438138496093,7.9534301355083725,-17.657912644909917,0.15739186830572025,0.4019881952987308,-0.9469030832737414,-0.010235051417431546,-0.023233939403121774,0.046311689654779706,0,70,255.0,255.0,255.0
390,19.5,1.9428,7.9735,-17.7052,0.1568433086974578,0.4007963273853514,-0.9445929310991916,-0.01170733291306747,-0.024440777132055835,0.046094397327223646,0,70,255.0,255.0,255.0
391,19.55,1.9506279714845651,7.993509782937365,-17.752371166295436,0.15628435500180549,0.3996053408994877,-0.942236475460836,-0.01065081491302567,-0.023198682302493605,0.048163828207002296,0,70,255.0,255.0,255.0
392,19.6,1.9584293159318475,8.013461569168975,-17.799421923020354,0.15577822720615522,0.39847645915510205,-0.9397765482784913,-0.009594296912983871,-0.021956587472931374,0.050233259086780946,0,70,255.0,255.0,255.0
393,19.650000000000002,1.9662066746368476,8.0333584639319,-17.846347096597555,0.15532492531050704,0.3974096821521945,-0.9372131495521578,-0.008537778912942072,-0.020714492643369144,0.0523026899665596,0,70,255.0,255.0,255.0
394,19.700000000000003,1.9739626888945652,8.05320357246322,-17.89314151344984,0.154924449314861,0.3964050098907651,-0.9345462792818353,-0.007481260912900274,-0.019472397813806913,0.05437212084633825,0,70,255.0,255.0,255.0
395,19.75,1.9817,8.073,-17.9398,0.15457679921921702,0.39546244237081385,-0.9317759374675241,-0.006424742912858772,-0.018230302984244773,0.05644155172611498,0,70,255.0,255.0,255.0
396,19.8,1.9894204616196098,8.092749566930816,-17.986318403446717,0.1542347173109608,0.3945048886818678,-0.928963370661006,-0.007258533417389679,-0.0200718445735989,0.05606112053460705,0,70,255.0,255.0,255.0
397,19.85,1.9971227769056759,8.112448954250196,-18.032696654092096,0.15385094587747805,0.3934552579134539,-0.9261698254140632,-0.008092323921920587,-0.021913386162953026,0.055680689343099124,0,70,255.0,255.0,255.0
398,19.900000000000002,2.0048048613819374,8.132093558104172,-18.07893570301412,0.15342548491876873,0.39231355006557245,-0.923395301726696,-0.008926114426451495,-0.023754927752307156,0.05530025815159119,0,70,255.0,255.0,255.0
399,19.950000000000003,2.0124646305721328,8.151678774638762,-18.12503650129076,0.15295833443483287,0.3910797651382232,-0.9206397995989041,-0.009759904930982402,-0.02559646934166128,0.05491982696008326,0,70,255.0,255.0,255.0
400,20.0,2.0201,8.1712,-18.171,0.1524494944256705,0.38975390313140634,-0.9179033190306878,-0.010593695435513917,-0.027438010931017054,0.05453939576857714,0,70,255.0,255.0,255.0
401,20.05,2.0277093820369965,8.190653549339379,-18.216826419917705,0.15192877575434718,0.3883911043730513,-0.9151420418951061,-0.010235051417418579,-0.027073939403182475,0.05591168965468933,0,70,255.0,255.0,255.0
402,20.1,2.0352931764454496,8.210039413830245,-18.262513060611273,0.1514259892839286,0.3870465091910881,-0.9123121500652187,-0.00987640739932324,-0.026709867875347893,0.057283983540801525,0,70,255.0,255.0,255.0
403,20.150000000000002,2.042852279835405,8.229358503651426,-18.30805649134599,0.15094113501441483,0.3857201175855165,-0.9094136435410258,-0.009517763381227902,-0.026345796347513314,0.05865627742691372,0,70,255.0,255.0,255.0
404,20.200000000000003,2.0503875888169065,8.24861172898174,-18.35345328138714,0.15047421294580582,0.3844119295563367,-0.9064465223225273,-0.009159119363132564,-0.025981724819678732,0.060028571313025914,0,70,255.0,255.0,255.0
405,20.25,2.0579,8.2678,-18.3987,0.15002522307810162,0.3831219451035487,-0.9034107864097233,-0.008800475345037029,-0.025617653291845066,0.06140086519914245,0,70,255.0,255.0,255.0
406,20.3,2.065390010232404,8.286924235711679,-18.443793516882472,0.14957017967165306,0.3818506938259086,-0.9003244617585849,-0.009401260912904528,-0.02523239781375945,0.062052120846388635,0,70,255.0,255.0,255.0
407,20.35,2.072856517312526,8.305985390428823,-18.488731903462824,0.14908509698681116,0.3805987053221727,-0.8972055743250843,-0.010002046480772027,-0.02484714233567383,0.06270337649363482,0,70,255.0,255.0,255.0
408,20.400000000000002,2.0802980192764453,8.324984427290127,-18.533513531601937,0.14856997502357586,0.37936597959234114,-0.8940541241092215,-0.010602832048639524,-0.024461886857588218,0.063354632140881,0,70,255.0,255.0,255.0
409,20.450000000000003,2.0877130141602436,8.343922309434289,-18.578136773160704,0.14802481378194718,0.37815251663641386,-0.8908701111109961,-0.011203617616507023,-0.0240766313795026,0.06400588778812719,0,70,255.0,255.0,255.0
410,20.5,2.0951,8.3628,-18.6226,0.14744961326192518,0.376958316454391,-0.8876535353304088,-0.011804403184375367,-0.023691375901416567,0.06465714343537687,0,70,255.0,255.0,255.0
411,20.55,2.102457777033388,8.38161750781391,-18.666901912552426,0.1468625055590411,0.37572612032331487,-0.8844241110705228,-0.011679904930987204,-0.02559646934162772,0.06451982696006216,0,70,255.0,255.0,255.0
412,20.6,2.109786354304449,8.400371024454465,-18.711042525537447,0.14628162276882645,0.3743986695202282,-0.8812015526344025,-0.011555406677599042,-0.02750156278183887,0.06438251048474743,0,70,255.0,255.0,255.0
413,20.650000000000002,2.1170860430588156,8.419055787188066,-18.75502218224626,0.14570696489128118,0.37297596404513095,-0.877985860022048,-0.011430908424210878,-0.029406656222050024,0.06424519400943271,0,70,255.0,255.0,255.0
414,20.700000000000003,2.1243571545421216,8.437667033281112,-18.798841225970047,0.14513853192640533,0.37145800389802314,-0.8747770332334591,-0.011306410170822716,-0.031311749662261176,0.064107877534118,0,70,255.0,255.0,255.0
415,20.75,2.1316,8.4562,-18.8425,0.14457632387419897,0.3698447890789049,-0.8715750722686364,-0.01118191191743434,-0.03321684310247219,0.06397056105880417,0,70,255.0,255.0,255.0
416,20.8,2.1388148816340444,8.474651333032686,-18.88599803290784,0.1440197980921849,0.36822082488084973,-0.8683310939593408,-0.011079119363127752,-0.03174172481973397,0.06578857131301492,0,70,255.0,255.0,255.0
417,20.85,2.1460020654696805,8.493023311753323,-18.929331594387392,0.14346841193788618,0.36667061659693145,-0.8649962151373348,-0.010976326808821166,-0.030266606536995734,0.06760658156722568,0,70,255.0,255.0,255.0
418,20.900000000000002,2.1531618084882953,8.511319623957615,-18.97249613941303,0.1429221654113028,0.3651941642271501,-0.8615704358026182,-0.010873534254514578,-0.028791488254257508,0.06942459182143644,0,70,255.0,255.0,255.0
419,20.950000000000003,2.1602943676712734,8.529543957441271,-19.015487122959108,0.1423810585124347,0.36379146777150567,-0.8580537559551911,-0.010770741700207991,-0.02731636997151928,0.0712426020756472,0,70,255.0,255.0,255.0
420,21.0,2.1674,8.5477,-19.0583,0.141845091241282,0.3624625272299982,-0.8544461755950536,-0.0106679491459023,-0.02584125168878293,0.07306061232986139,0,70,255.0,255.0,255.0
421,21.05,2.174478696430436,8.565789960055353,-19.100930755816233,0.14129830207222155,0.36111858015329046,-0.8507795130921026,-0.011203617616516278,-0.027916631379528073,0.07360588778817566,0,70,255.0,255.0,255.0
422,21.1,2.18152938381683,8.583810128532255,-19.143377496912997,0.14072472947963036,0.35967086409204535,-0.8470855868162359,-0.011739286087130256,-0.02999201107027322,0.07415116324648993,0,70,255.0,255.0,255.0
423,21.150000000000002,2.1885507229880075,8.60175531698148,-19.185638860101644,0.1401243734635085,0.35811937904626306,-0.8433643967674536,-0.012274954557744234,-0.03206739076101837,0.0746964387048042,0,70,255.0,255.0,255.0
424,21.200000000000003,2.195541374772789,8.619620336953805,-19.22771348219353,0.13949723402385591,0.3564641250159435,-0.8396159429457555,-0.012810623028358212,-0.03414277045176351,0.07524171416311848,0,70,255.0,255.0,255.0
425,21.25,2.2025,8.6374,-19.2696,0.13884331116067267,0.3547051020010868,-0.8358402253511419,-0.013346291498972374,-0.03621815014250851,0.07578698962143271,0,70,255.0,255.0,255.0
426,21.3,2.209425532644214,8.65509042674591,-19.311297343827235,0.1381789936189279,0.35292085450596866,-0.8320548536722537,-0.013226410170817802,-0.035151749662217645,0.07562787753409025,0,70,255.0,255.0,255.0
427,21.35,2.216317999263,8.672692974117664,-19.352805617960637,0.13752067014359085,0.35118992703486496,-0.8282774375977328,-0.01310652884266323,-0.03408534918192677,0.0754687654467478,0,70,255.0,255.0,255.0
428,21.400000000000002,2.22317769955968,8.690210308116463,-19.394125220180417,0.13686834073466156,0.3495123195877759,-0.824507977127579,-0.01298664751450866,-0.03301894870163591,0.07530965335940536,0,70,255.0,255.0,255.0
429,21.450000000000003,2.2300049332375727,8.707645094743508,-19.4352565482668,0.13622200539214,0.3478880321647013,-0.8207464722617921,-0.012866766186354088,-0.03195254822134504,0.0751505412720629,0,70,255.0,255.0,255.0
430,21.5,2.2368,8.725,-19.4762,0.13558166411602618,0.3463170647656415,-0.8169929230003727,-0.012746884858199525,-0.030886147741053804,0.07499142918471868,0,70,255.0,255.0,255.0
431,21.55,2.2435631729927112,8.742277132961009,-19.516955068874832,0.1349457234520661,0.34476600182282824,-0.8131930722188639,-0.012690741700203833,-0.03115636997147711,0.07700260207563442,0,70,255.0,255.0,255.0
432,21.6,2.250294619131172,8.759476374997092,-19.557517631244476,0.13431258994600578,0.3432014277684937,-0.8092926627928092,-0.01263459854220814,-0.031426592201900416,0.07901377496655014,0,70,255.0,255.0,255.0
433,21.650000000000002,2.2569944787732767,8.776597050552668,-19.597882659176705,0.13368226359784527,0.34162334260263816,-0.8052916947222087,-0.012578455384212447,-0.031696814432323715,0.08102494785746588,0,70,255.0,255.0,255.0
434,21.700000000000003,2.2636628922769217,8.793638484072163,-19.638045124739293,0.13305474440758452,0.3400317463252613,-0.8011901680070624,-0.012522312226216756,-0.03196703666274702,0.08303612074838161,0,70,255.0,255.0,255.0
435,21.75,2.2703,8.8106,-19.678,0.13243003237522363,0.33842663893636354,-0.7969880826473709,-0.012466169068221289,-0.032237258893168974,0.08504729363929453,0,70,255.0,255.0,255.0
436,21.8,2.276905775384943,8.827480241410054,-19.717743180673434,0.1317981125728089,0.3367671382027385,-0.792740857452311,-0.012810623028367156,-0.03414277045183146,0.0848417141630959,0,70,255.0,255.0,255.0
437,21.85,2.2834795242123143,8.844275125893976,-19.757274257061464,0.1311489700723869,0.33501236189118033,-0.7885039112310612,-0.013155076988513025,-0.03604828201049393,0.08463613468689725,0,70,255.0,255.0,255.0
438,21.900000000000002,2.290020385347215,8.860979889672873,-19.796593743112773,0.13048260487395758,0.3331623100016891,-0.7842772439836212,-0.013499530948658892,-0.037953793569156416,0.08443055521069862,0,70,255.0,255.0,255.0
439,21.950000000000003,2.296527497654744,8.877589768967846,-19.835702152776054,0.12979901697752097,0.3312169825342647,-0.7800608557099912,-0.01384398490880476,-0.0398593051278189,0.08422497573449997,0,70,255.0,255.0,255.0
440,22.0,2.303,8.8941,-19.8746,0.12909820638307712,0.32917637948890727,-0.7758547464101713,-0.014188438868950826,-0.04176481668647947,0.08401939625830757,0,70,255.0,255.0,255.0
441,22.05,2.309436925467519,8.910507501398781,-19.913287408431433,0.1283738262566946,0.3271414453662112,-0.7716354979719091,-0.01478676618634954,-0.03963254822136039,0.08475054127217875,0,70,255.0,255.0,255.0
442,22.1,2.3158368840195718,8.926815921427009,-19.95176294050968,0.12761952976444213,0.3252131246667712,-0.7673796922829532,-0.015385093503748254,-0.03750027975624131,0.08548168628604993,0,70,255.0,255.0,255.0
443,22.150000000000002,2.3221983798378654,8.943030590755848,-19.990024768372216,0.12683531690631977,0.3233914173905871,-0.7630873293433039,-0.015983420821146968,-0.035368011291122235,0.0862128312999211,0,70,255.0,255.0,255.0
444,22.200000000000003,2.328519917104106,8.959156840056457,-20.028071064156503,0.12602118768232742,0.3216763235376589,-0.7587584091529611,-0.016581748138545682,-0.03323574282600315,0.08694397631379229,0,70,255.0,255.0,255.0
445,22.25,2.3348,8.9752,-20.0659,0.12517714209246525,0.3200678431079868,-0.7543929317119249,-0.017180075455943244,-0.03110347436088423,0.08767512132766342,0,70,255.0,255.0,255.0
446,22.3,2.3410377227449826,8.991163352994823,-20.103509585600847,0.12433858240041147,0.3184430803323978,-0.7499811506600259,-0.016362312226207397,-0.03388703666267391,0.08879612074829703,0,70,255.0,255.0,255.0
447,22.35,2.3472345397093997,9.007041988397987,-20.14089718089982,0.12354091086984448,0.3166791394417194,-0.745513319637095,-0.015544548996471551,-0.0366705989644636,0.08991712016893064,0,70,255.0,255.0,255.0
448,22.400000000000002,2.353392495301325,9.022828947303744,-20.178059983398374,0.1227841275007643,0.31477602043595143,-0.7409894386431326,-0.014726785766735705,-0.039454161266253285,0.09103811958956425,0,70,255.0,255.0,255.0
449,22.450000000000003,2.359513633928834,9.038517270806333,-20.21499519059795,0.1220682322931709,0.312733723315094,-0.7364095076781385,-0.013909022536999858,-0.042237723568042965,0.09215911901019787,0,70,255.0,255.0,255.0
450,22.5,2.3656,9.0541,-20.2517,0.12139322524706435,0.3105522480791472,-0.731773526742113,-0.013091259307263736,-0.04502128586983334,0.09328011843083317,0,70,255.0,255.0,255.0
451,22.55,2.3716529835525524,9.06957188662193,-20.28817184916519,0.12071984414166241,0.3083342333042053,-0.7270958993879801,-0.013843984908813655,-0.04369930512784357,0.09382497573448136,0,70,255.0,255.0,255.0
452,22.6,2.3776713571428316,9.084934524981039,-20.324409135891045,0.12000882675618296,0.30618231756636277,-0.7223910291686648,-0.014596710510363575,-0.04237732438585381,0.09436983303812953,0,70,255.0,255.0,255.0
453,22.650000000000002,2.383653238956836,9.100191220029185,-20.360410498034305,0.11926017309062603,0.30409650086561985,-0.717658916084167,-0.015349436111913493,-0.04105534364386404,0.09491469034177771,0,70,255.0,255.0,255.0
454,22.700000000000003,2.38959674718056,9.11534527671822,-20.39617457345171,0.11847388314499159,0.30207678320197634,-0.7128995601344869,-0.016102161713463414,-0.03973336290187427,0.09545954764542589,0,70,255.0,255.0,255.0
455,22.75,2.3955,9.1304,-20.4317,0.11764995691927972,0.3001231645754324,-0.7081129613196246,-0.0168548873150135,-0.03841138215988682,0.09600440494907403,0,70,255.0,255.0,255.0
456,22.8,2.4013615430448105,9.145357900517462,-20.466985417738393,0.11681404103294053,0.2981879864507846,-0.7032992517880519,-0.01658174813855375,-0.038995742826024415,0.09654397631383774,0,70,255.0,255.0,255.0
457,22.85,2.407181631719275,9.160218311677857,-20.502029475536002,0.11599178210542432,0.2962235902928299,-0.6984585636882408,-0.016308608962094,-0.039580103492162004,0.09708354767860145,0,70,255.0,255.0,255.0
458,22.900000000000002,2.4129609488713335,9.174979772579523,-20.536830824464413,0.11518318013673111,0.2942299761015683,-0.6935908970201915,-0.01603546978563425,-0.0401644641582996,0.09762311904336515,0,70,255.0,255.0,255.0
459,22.950000000000003,2.4187001773489283,9.189640822320793,-20.57138811559522,0.11438823512686087,0.29220714387699986,-0.688696251783904,-0.015762330609174497,-0.04074882482443719,0.09816269040812887,0,70,255.0,255.0,255.0
460,23.0,2.4244,9.2042,-20.6057,0.11360694707581369,0.29015509361912467,-0.6837746279793788,-0.015489191432715432,-0.041333185490576074,0.09870226177289254,0,70,255.0,255.0,255.0
461,23.05,2.4300608442682066,9.218655711308228,-20.639764879881238,0.11282399172657112,0.2880658208926592,-0.678811093459802,-0.01582902253698693,-0.042237723568043,0.09983911901018062,0,70,255.0,255.0,255.0
462,23.1,2.43568211598007,9.233005828307535,-20.67358016196495,0.11202404482211496,0.2859313212623203,-0.6737907160783606,-0.01616885364125843,-0.04314226164550992,0.10097597624746871,0,70,255.0,255.0,255.0
463,23.150000000000002,2.4412629655578315,9.247248089652729,-20.707143004108044,0.11120710636244525,0.2837515947281081,-0.6687134958350549,-0.016508684745529925,-0.04404679972297684,0.1021128334847568,0,70,255.0,255.0,255.0
464,23.200000000000003,2.446802543423728,9.261380233998617,-20.740450564167425,0.11037317634756195,0.2815266412900226,-0.6635794327298848,-0.016848515849801425,-0.04495133780044377,0.10324969072204489,0,70,255.0,255.0,255.0
465,23.25,2.4523,9.2754,-20.7735,0.10952225477746516,0.27925646094806383,-0.6583885267628506,-0.017188346954072564,-0.04585587587791151,0.10438654795933466,0,70,255.0,255.0,255.0
466,23.3,2.4577542798823644,9.28930565424963,-20.806288662736655,0.10864199206077664,0.2769727299785694,-0.6531523743727321,-0.018022161713467322,-0.045493362901862164,0.1050595476454042,0,70,255.0,255.0,255.0
467,23.35,2.463163504360445,9.303097575092004,-20.8388146766042,0.10772003860611841,0.27470712465787755,-0.64788257199831,-0.01885597647286208,-0.04513084992581281,0.10573254733147375,0,70,255.0,255.0,255.0
468,23.400000000000002,2.468525588897344,9.316776668809563,-20.87107635910342,0.10675639441349041,0.2724596449859881,-0.6425791196395846,-0.01968979123225684,-0.04476833694976346,0.10640554701754329,0,70,255.0,255.0,255.0
469,23.450000000000003,2.473838448956162,9.33034384168475,-20.90307202773509,0.10575105948289269,0.2702302909629012,-0.6372420172965556,-0.020523605991651598,-0.04440582397371411,0.10707854670361283,0,70,255.0,255.0,255.0
470,23.5,2.4791,9.3438,-20.9348,0.1047040338143253,0.26801906258861674,-0.6318712649692235,-0.02135742075104652,-0.04404331099766434,0.10775154638968765,0,70,255.0,255.0,255.0
471,23.55,2.4843092362023365,9.357145671693257,-20.966258869172133,0.10368004003031976,0.2658032591930644,-0.6264834090492786,-0.019602330609174486,-0.04458882482442839,0.10776269040810824,0,70,255.0,255.0,255.0
472,23.6,2.48946946657815,9.370379871324452,-20.997448331618248,0.10274380075340783,0.2635601801061738,-0.6210949959284126,-0.017847240467302454,-0.04513433865119244,0.10777383442652884,0,70,255.0,255.0,255.0
473,23.650000000000002,2.4945850788527957,9.383501235109017,-21.028368359478293,0.1018953159835895,0.2612898253279451,-0.6157060256066255,-0.016092150325430425,-0.045679852477956494,0.10778497844494943,0,70,255.0,255.0,255.0
474,23.700000000000003,2.4996604607516275,9.396508399262391,-21.059018924892225,0.10113458572086476,0.25899219485837816,-0.6103164980839174,-0.014337060183558393,-0.046225366304720544,0.10779612246337003,0,70,255.0,255.0,255.0
475,23.75,2.5047,9.4094,-21.0894,0.10046160996523369,0.25666728869747313,-0.6049264133602886,-0.012581970041686152,-0.04677088013148456,0.10780726648179506,0,70,255.0,255.0,255.0
476,23.8,2.5097063753082898,9.422174858977348,-21.119511060574816,0.0997738478179466,0.25432623324917414,-0.5995059894301912,-0.014928515849797075,-0.04687133780047379,0.10900969072210051,0,70,255.0,255.0,255.0
477,23.85,2.5146754293269553,9.434832539610195,-21.14934959692282,0.09896875838025397,0.25198015491742565,-0.5940254442880785,-0.017275061657907997,-0.04697179546946302,0.11021211496240596,0,70,255.0,255.0,255.0
478,23.900000000000002,2.519601295691475,9.447372790754367,-21.178912602983424,0.09804634165215577,0.24962905370222777,-0.5884847779339505,-0.01962160746601892,-0.04707225313845225,0.11141453920271141,0,70,255.0,255.0,255.0
479,23.950000000000003,2.5244781080373304,9.459795361265693,-21.208197072696017,0.09700659763365205,0.24727292960358038,-0.5828839903678071,-0.02196815327412984,-0.04717271080744148,0.11261696344301686,0,70,255.0,255.0,255.0
480,24.0,2.5293,9.4721,-21.2372,0.09584952632474283,0.24491178262148375,-0.577223081589649,-0.02431469908224093,-0.04727316847643093,0.11381938768332223,0,70,255.0,255.0,255.0
481,24.05,2.5340628625645056,9.484286092397355,-21.26591848852862,0.09468056869789519,0.24252380781023117,-0.5715086332299741,-0.022443605991664325,-0.0482458239736714,0.11475854670366435,0,70,255.0,255.0,255.0
482,24.1,2.538769616114032,9.496351570234776,-21.29435008069048,0.09360516572557637,0.24008720022411653,-0.5657472269192824,-0.020572512901087716,-0.049218479470911874,0.11569770572400649,0,70,255.0,255.0,255.0
483,24.150000000000002,2.5434249383813055,9.50829400187352,-21.32249242858803,0.09262331740778638,0.2376019598631399,-0.5599388626575733,-0.018701419810511107,-0.05019113496815235,0.11663686474434862,0,70,255.0,255.0,255.0
484,24.200000000000003,2.548033507099053,9.520110955674841,-21.350343184323723,0.09173502374452523,0.23506808672730123,-0.5540835404448473,-0.0168303267199345,-0.05116379046539282,0.11757602376469074,0,70,255.0,255.0,255.0
485,24.25,2.5526,9.5318,-21.3779,0.09094028473579296,0.23248558081660073,-0.5481812602811047,-0.014959233629357804,-0.052136445962634115,0.11851518278503193,0,70,255.0,255.0,255.0
486,24.3,2.5571277744336887,9.543359171433234,-21.405160585310707,0.09015987739047038,0.2298825355099163,-0.5422354776498952,-0.016257060183545155,-0.05198536630474151,0.11931612246334568,0,70,255.0,255.0,255.0
487,24.35,2.5616149062169185,9.554788379450708,-21.43212288031526,0.08931457871743842,0.22728704418612652,-0.5362496480347699,-0.017554886737732502,-0.0518342866468489,0.12011706214165943,0,70,255.0,255.0,255.0
488,24.400000000000002,2.5660581507833045,9.566088001751563,-21.458784882664453,0.0884043887166971,0.22469910684523134,-0.5302237714357291,-0.018852713291919853,-0.051683206988956294,0.12091800181997317,0,70,255.0,255.0,255.0
489,24.450000000000003,2.57045426356646,9.577258416034947,-21.4851445900091,0.0874293073882464,0.2221187234872308,-0.5241578478527725,-0.020150539846107204,-0.05153212733106369,0.12171894149828692,0,70,255.0,255.0,255.0
490,24.5,2.5748,9.5883,-21.5112,0.08638933473208645,0.21954589411212508,-0.5180518772859007,-0.021448366400294572,-0.0513810476731702,0.12251988117659973,0,70,255.0,255.0,255.0
491,24.55,2.57909243970074,9.599213221869709,-21.536949570228547,0.08530392174022561,0.21698605015010913,-0.5119334561704125,-0.021968153274138598,-0.05101271080746605,0.12221696344292655,0,70,255.0,255.0,255.0
492,24.6,2.583329959018295,9.609998911962398,-21.562393598048484,0.08419251940467255,0.2144446230313784,-0.5058301809416079,-0.022487940147982624,-0.0506443739417619,0.12191404570925339,0,70,255.0,255.0,255.0
493,24.650000000000002,2.5875112584854794,9.620657991120236,-21.58753284075415,0.08305512772542731,0.21192161275593288,-0.499742051599487,-0.02300772702182665,-0.05027603707605775,0.12161112797558021,0,70,255.0,255.0,255.0
494,24.700000000000003,2.5916350386351095,9.631191380185381,-21.61236805563988,0.08189174670248986,0.20941701932377257,-0.4936690681440497,-0.023527513895670676,-0.0499077002103536,0.12130821024190704,0,70,255.0,255.0,255.0
495,24.75,2.5957,9.6416,-21.6369,0.08070237633586028,0.20693084273489765,-0.4876112305752965,-0.02404730076951478,-0.04953936334464837,0.12100529250823433,0,70,255.0,255.0,255.0
496,24.8,2.5997056667633514,9.651883941087931,-21.661128333775107,0.07953643564862414,0.20441326388964742,-0.4815026976684719,-0.022590326719929554,-0.051163790465358905,0.12333602376474471,0,70,255.0,255.0,255.0
497,24.85,2.6036548577099037,9.662039972699699,-21.685048327490804,0.0784433436638673,0.20181446368836167,-0.47527762819882186,-0.021133352670344333,-0.05278821758606944,0.1256667550212551,0,70,255.0,255.0,255.0
498,24.900000000000002,2.6075512152747797,9.672064033767501,-21.708654154318943,0.07742310038158969,0.1991344421310404,-0.4689360221663462,-0.01967637862075911,-0.05441264470677998,0.1279974862777655,0,70,255.0,255.0,255.0
499,24.950000000000003,2.611398381893104,9.681952063223536,-21.731939987431392,0.07647570580179136,0.19637319921768362,-0.4624778795710451,-0.018219404571173888,-0.056037071827490514,0.13032821753427587,0,70,255.0,255.0,255.0
500,25.0,2.6152,9.6917,-21.7549,0.07560115992447235,0.1935307349482915,-0.45590320041291893,-0.016762430521588212,-0.057661498948200274,0.13265894879078433,0,70,255.0,255.0,255.0
501,25.05,2.618958493245853,9.701304613778571,-21.777529894671027,0.07472633566528006,0.19065689429130936,-0.449303753155691,-0.0182305398461029,-0.0572921273310841,0.131318941498331,0,70,255.0,255.0,255.0
502,25.1,2.6226714101420914,9.710765997238813,-21.79983149198831,0.07377810593986203,0.18780152221518304,-0.44277130626308564,-0.019698649170617585,-0.05692275571396793,0.1299789342058777,0,70,255.0,255.0,255.0
503,25.150000000000002,2.626335080415403,9.72008507380977,-21.82180814197008,0.07275647074821827,0.1849646187199125,-0.436305859735103,-0.021166758495132273,-0.05655338409685176,0.12863892691342438,0,70,255.0,255.0,255.0
504,25.200000000000003,2.629945833792476,9.729262766920485,-21.843463194634566,0.07166143009034877,0.18214618380549777,-0.42990741357174306,-0.022634867819646957,-0.05618401247973559,0.12729891962097106,0,70,255.0,255.0,255.0
505,25.25,2.6335,9.7383,-21.8648,0.07049298396625363,0.17934621747193907,-0.42357596777300616,-0.024102977144161986,-0.055814640862619225,0.12595891232851875,0,70,255.0,255.0,255.0
506,25.3,2.636994760253236,9.747197603797792,-21.885820087540775,0.06930222169025736,0.17655915894511423,-0.4172022897087475,-0.023527513895688093,-0.0556677002103739,0.12898821024182214,0,70,255.0,255.0,255.0
507,25.35,2.6404307017217334,9.755956038345056,-21.906517704555945,0.06814023257668479,0.1737794474509016,-0.4106771467488238,-0.0229520506472142,-0.05552075955812858,0.13201750815512553,0,70,255.0,255.0,255.0
508,25.400000000000002,2.643809263063612,9.764575670993425,-21.926885277800732,0.0670070166255359,0.17100708298930128,-0.4040005388932348,-0.022376587398740308,-0.05537381890588326,0.13504680606842892,0,70,255.0,255.0,255.0
509,25.450000000000003,2.6471318829369936,9.77305686909453,-21.946915234030342,0.06590257383681072,0.16824206556031318,-0.3971724661419807,-0.021801124150266415,-0.05522687825363794,0.13807610398173234,0,70,255.0,255.0,255.0
510,25.5,2.6504,9.7814,-21.9666,0.06482690421050932,0.16548439516393756,-0.3901929284950618,-0.021225660901792676,-0.055079937601393736,0.14110540189503595,0,70,255.0,255.0,255.0
511,25.55,2.6536144657412026,9.789604971030268,-21.98593375516587,0.06374477757368559,0.16270646992821627,-0.3831670880093278,-0.022059404571156238,-0.05603707182745629,0.13992821753432058,0,70,255.0,255.0,255.0
512,25.6,2.6567737829709777,9.797669849380965,-22.0049176897879,0.06262096375339367,0.15988068798119187,-0.37620010674162957,-0.0228931482405198,-0.05699420605351884,0.13875103317360524,0,70,255.0,255.0,255.0
513,25.650000000000002,2.659875867330151,9.805592242216532,-22.023554746827,0.06145546274963357,0.1570070493228643,-0.3692919846919671,-0.023726891909883367,-0.0579513402795814,0.13757384881288987,0,70,255.0,255.0,255.0
514,25.700000000000003,2.6629186344595497,9.813369756701398,-22.041847869244062,0.0602482745624053,0.15408555395323362,-0.3624427218603404,-0.02456063557924693,-0.058908474505643946,0.13639666445217452,0,70,255.0,255.0,255.0
515,25.75,2.6659,9.821,-22.0598,0.058999399191708934,0.15111620187230004,-0.35565231824674987,-0.025394379248610544,-0.05986560873170643,0.13521948009145968,0,70,255.0,255.0,255.0
516,25.8,2.6688185767819537,9.828480912081138,-22.077412891795753,0.05775066801500237,0.1481189613420142,-0.34884935825393953,-0.024554867819651115,-0.06002401247972622,0.13689891962094897,0,70,255.0,255.0,255.0
517,25.85,2.6716757663943578,9.835811764131078,-22.094683536292454,0.05654391240974379,0.14511380062432733,-0.3419624262846548,-0.023715356390691687,-0.06018241622774601,0.13857835915043829,0,70,255.0,255.0,255.0
518,25.900000000000002,2.674473667615785,9.842992160140449,-22.111607734891273,0.05537913237593317,0.1421007197192395,-0.33499152233889556,-0.02287584496173226,-0.0603408199757658,0.14025779867992758,0,70,255.0,255.0,255.0
519,25.950000000000003,2.6772143792248086,9.850021704099879,-22.128181288993403,0.05425632791357053,0.13907971862675067,-0.3279366464166618,-0.02203633353277283,-0.060499223723785585,0.1419372382094169,0,70,255.0,255.0,255.0
520,26.0,2.6799,9.8569,-22.1444,0.053175499022655934,0.13605079734686104,-0.32079779851795415,-0.02119682210381335,-0.060657627471806475,0.14361667773890607,0,70,255.0,255.0,255.0
521,26.05,2.682532027130984,9.863626580645176,-22.160260277651126,0.05210055036630371,0.13300968470372435,-0.3136114789749367,-0.021801124150274895,-0.06098687825365952,0.1438361039817873,0,70,255.0,255.0,255.0
522,26.1,2.685109551451592,9.87020069409472,-22.175760965042294,0.050995386607628417,0.129952109521495,-0.3064141881197752,-0.02240542619673644,-0.06131612903551257,0.14405553022466852,0,70,255.0,255.0,255.0
523,26.150000000000002,2.687631062206708,9.876621517221675,-22.1909015136079,0.04986000774663004,0.126878071800173,-0.29920592595246964,-0.023009728243197983,-0.06164537981736561,0.14427495646754976,0,70,255.0,255.0,255.0
524,26.200000000000003,2.690095048641216,9.882888226899087,-22.205681374782337,0.04869441378330858,0.12378757153975835,-0.29198669247302006,-0.023614030289659527,-0.06197463059921866,0.144494382710431,0,70,255.0,255.0,255.0
525,26.25,2.6925,9.889,-22.2201,0.04749860471766414,0.12068060874025124,-0.2847564876814268,-0.024218332336121084,-0.06230388138107257,0.14471380895331265,0,70,255.0,255.0,255.0
526,26.3,2.6948445146941116,9.89495596533815,-22.234156397599754,0.04627913051978014,0.11755429984308352,-0.27748872584629003,-0.02456063557923848,-0.06274847450563495,0.14599666445215256,0,70,255.0,255.0,255.0
527,26.35,2.6971276277992757,9.900755059490038,-22.24784780353838,0.04504254115974026,0.11440576128968766,-0.2701568212362114,-0.024902938822355877,-0.06319306763019733,0.1472795199509925,0,70,255.0,255.0,255.0
528,26.400000000000002,2.699348483557383,9.90639617097285,-22.261171010677124,0.043788836637544515,0.1112349930800637,-0.2627607738511906,-0.025245242065473277,-0.06363766075475971,0.14856237544983242,0,70,255.0,255.0,255.0
529,26.450000000000003,2.701506226210327,9.911878188303772,-22.27412281187725,0.0425180169531929,0.1080419952142116,-0.2553005836912279,-0.025587545308590674,-0.06408225387932209,0.14984523094867236,0,70,255.0,255.0,255.0
530,26.5,2.7036,9.9172,-22.2867,0.041230082106685495,0.10482676769213162,-0.24777625075632373,-0.025929848551708323,-0.06452684700388467,0.1511280864475124,0,70,255.0,255.0,255.0
531,26.55,2.705629114092569,9.922360758002219,-22.29889973194986,0.03993492755457346,0.10160511592394002,-0.24020961763990265,-0.025876333532772477,-0.06433922372377711,0.15153723820932635,0,70,255.0,255.0,255.0
532,26.6,2.7075935373513063,9.927360667945127,-22.310720620804187,0.03864244875340821,0.09839284531975381,-0.23262252693539087,-0.02582281851383663,-0.06415160044366956,0.1519463899711403,0,70,255.0,255.0,255.0
533,26.650000000000002,2.709493403563759,9.932200198886926,-22.322161643683593,0.03735264570318975,0.09518995587957298,-0.2250149786427884,-0.025769303494900784,-0.063963977163562,0.1523555417329542,0,70,255.0,255.0,255.0
534,26.700000000000003,2.7113288465174743,9.936879819885819,-22.333221777708665,0.0360655184039181,0.09199644760339752,-0.21738697276209526,-0.025715788475964937,-0.06377635388345446,0.15276469349476815,0,70,255.0,255.0,255.0
535,26.75,2.7131,9.9414,-22.3439,0.034781066855593325,0.08881232049122768,-0.20973850929331195,-0.02566227345702904,-0.06358873060334702,0.15317384525658229,0,70,255.0,255.0,255.0
536,26.8,2.714807028935611,9.945761002652976,-22.354195074600824,0.033501159261926206,0.0856252364611636,-0.20205680359413364,-0.025534030289654962,-0.06389463059921473,0.15409438271054565,0,70,255.0,255.0,255.0
537,26.85,2.716450222795499,9.949962268729454,-22.36410491324487,0.03222766382662779,0.08242285743130612,-0.19432907102225716,-0.025405787122280882,-0.06420053059508242,0.15501492016450905,0,70,255.0,255.0,255.0
538,26.900000000000002,2.7180299021875802,9.954003033479442,-22.373627214588506,0.030960580549698084,0.07920518340165526,-0.18655531157768251,-0.025277543954906806,-0.06450643059095013,0.1559354576184724,0,70,255.0,255.0,255.0
539,26.950000000000003,2.7195463877197743,9.957882532152954,-22.382759677288092,0.029699909431137077,0.07597221437221101,-0.1787355252604097,-0.02514930078753273,-0.06481233058681783,0.1568559950724358,0,70,255.0,255.0,255.0
540,27.0,2.721,9.9616,-22.3915,0.028445650470944862,0.07272395034297363,-0.17086971207043927,-0.025021057620158604,-0.0651182305826854,0.15777653252639956,0,70,255.0,255.0,255.0
541,27.05,2.7223907701649854,9.965154431385882,-22.399846369646855,0.027180435397725893,0.06944593823142266,-0.1629871679835628,-0.025587545308599323,-0.06600225387935181,0.15752523094865448,0,70,255.0,255.0,255.0
542,27.1,2.723717571466699,9.968543857137062,-22.407798926216337,0.025886895940084895,0.06612372495503836,-0.15511718897557358,-0.026154032997040038,-0.06688627717601821,0.15727392937090937,0,70,255.0,255.0,255.0
543,27.150000000000002,2.7249789876859203,9.971766067195304,-22.415358297962396,0.024565032098021855,0.06275731051382075,-0.14725977504647167,-0.026720520685480757,-0.06777030047268462,0.15702262779316428,0,70,255.0,255.0,255.0
544,27.200000000000003,2.7261736026034273,9.974818851502363,-22.422525113138967,0.02321484387153678,0.059346694907769795,-0.13941492619625695,-0.02728700837392147,-0.06865432376935102,0.1567713262154192,0,70,255.0,255.0,255.0
545,27.25,2.7273,9.9777,-22.4293,0.021836331260629768,0.055891878136885786,-0.13158264242493004,-0.027853496062362204,-0.06953834706601736,0.15652002463767478,0,70,255.0,255.0,255.0
546,27.3,2.728357090404448,9.980407671803505,-22.43568264681176,0.020449099147171468,0.052415010613148426,-0.12370652447161919,-0.027635788475968967,-0.06953635388347515,0.15852469349475473,0,70,255.0,255.0,255.0
547,27.35,2.7293450913377058,9.982941502722301,-22.44166898188978,0.019072752413032832,0.04893824274853817,-0.11573017307545433,-0.02741808088957573,-0.06953436070093293,0.16052936235183468,0,70,255.0,255.0,255.0
548,27.400000000000002,2.7302645470687397,9.985301497739345,-22.44725399356193,0.017707291058213857,0.045461574543055036,-0.10765358823643549,-0.027200373303182493,-0.06953236751839072,0.16253403120891466,0,70,255.0,255.0,255.0
549,27.450000000000003,2.731116001866516,9.987487661837593,-22.452432670156046,0.016352715082714544,0.041985005996699,-0.09947676995456263,-0.026982665716789256,-0.0695303743358485,0.1645387000659946,0,70,255.0,255.0,255.0
550,27.5,2.7319,9.9895,-22.4572,0.015009024486534992,0.03850853710947033,-0.0911997182298364,-0.026764958130396005,-0.0695283811533064,0.1665433689230743,0,70,255.0,255.0,255.0
551,27.55,2.7326168682172236,9.9913380814001,-22.46155104310611,0.013663168013586866,0.03500601931596837,-0.0828267341299475,-0.027069300787528238,-0.07057233058677023,0.16837599507247722,0,70,255.0,255.0,255.0
552,27.6,2.733266063182478,9.992999731973734,-22.465481146224537,0.01230209440778213,0.0314513040507932,-0.07436211872258844,-0.02737364344466047,-0.07161628002023407,0.1702086212218801,0,70,255.0,255.0,255.0
553,27.650000000000002,2.7338468240391207,9.994482341847318,-22.468985727789907,0.010925803669120781,0.027844391313944856,-0.06580587200775923,-0.027677986101792704,-0.0726602294536979,0.172041247371283,0,70,255.0,255.0,255.0
554,27.700000000000003,2.734358389930509,9.99578330114727,-22.472060206236854,0.00953429579760282,0.024185281105423315,-0.05715799398545989,-0.027982328758924934,-0.07370417888716174,0.1738738735206859,0,70,255.0,255.0,255.0
555,27.75,2.7348,9.9969,-22.4747,0.008127570793228348,0.020473973425228848,-0.04841848465569103,-0.028286671416057174,-0.0747481283206255,0.17570649967008878,0,70,255.0,255.0,255.0
556,27.8,2.7351714367266586,9.99783200259609,-22.4769051807638,0.006738228798479075,0.016840912122979498,-0.03986653900855546,-0.027287008373912937,-0.07057432376934643,0.16637132621532896,0,70,255.0,255.0,255.0
557,27.85,2.735474655932383,9.998587569382757,-22.478694433212066,0.005398869955837016,0.013416541048294105,-0.0317813520341579,-0.026287345331768703,-0.06640051921806736,0.15703615276056912,0,70,255.0,255.0,255.0
558,27.900000000000002,2.735712156774778,9.999177134871378,-22.48009109527843,0.004109494265302168,0.010200860201172668,-0.024162923732498325,-0.025287682289624466,-0.062226714666788294,0.1477009793058093,0,70,255.0,255.0,255.0
559,27.950000000000003,2.7358864384114483,9.999611133573334,-22.48111850489653,0.0028701017268745336,0.007193869581615188,-0.017011254103576758,-0.024288019247480228,-0.058052910115509226,0.13836580585104946,0,70,255.0,255.0,255.0
560,28.0,2.736,9.9999,-22.4818,0.0016806923405541933,0.004395569189621856,-0.010326343147393637,-0.02328835620533607,-0.053879105564230444,0.12903063239629042,0,70,255.0,255.0,255.0
561,28.05,2.7360573848761414,10.000057908215538,-22.482168233838678,0.0006639167925009153,0.0020303321921190266,-0.004667109835835943,-0.01738266571679447,-0.04073037433588137,0.09733870006601414,0,70,255.0,255.0,255.0
562,28.1,2.7360713130879906,10.000113990495235,-22.482293120927192,-5.7574231125278436e-05,0.0003225317560336604,-0.0005924731407920859,-0.011476975228252872,-0.027581643107532302,0.06564676773573784,0,70,255.0,255.0,255.0
563,28.150000000000002,2.7360565488617694,10.000101118667166,-22.482253891096367,-0.00048378073032438827,-0.0007278321186342425,0.001897566937737934,-0.005571284739711271,-0.014432911879183233,0.033954835405461556,0,70,255.0,255.0,255.0
564,28.200000000000003,2.7360278564236986,10.000052164559397,-22.48212977417703,-0.0006147027050964131,-0.0011207594318846832,0.002803010399754117,0.00033440574883032703,-0.0012841806508341602,0.0022629030751852575,0,70,255.0,255.0,255.0
565,28.25,2.736,10.0,-22.482,-0.00045034015544137746,-0.0008562501837177027,0.002123857245256566,0.006240096237371507,0.011864550577513972,-0.02942902925508877,0,70,255.0,255.0,255.0
566,28.3,2.7359846237687764,9.999970764541759,-22.48192748388148,-0.00017789596848040613,-0.00033824089145858313,0.0008389783518976559,0.004657671241067192,0.008855821112850519,-0.02196612647926692,0,70,255.0,255.0,255.0
567,28.35,2.735980891715655,9.999963668636301,-22.48190988307916,1.5426968665348316e-05,2.933192756736163e-05,-7.275540267015674e-05,0.0030752462447628773,0.005847091648187065,-0.01450322370344507,0,70,255.0,255.0,255.0
568,28.400000000000002,2.735984847778146,9.999971190459961,-22.481928540336103,0.00012962865599588593,0.00024646827336013164,-0.0006113440184468714,0.0014928212484585628,0.0028383621835236118,-0.0070403209276232205,0,70,255.0,255.0,255.0
