idx,t,px,py,pz,vx,vy,vz,ax,ay,az,yaw,mode,ledr,ledg,ledb
0,0.0,0.0,-3.0,0.0,-6.841432782956699e-77,-5.965135087845485e-11,0.08070372965037953,8.209719339548038e-76,7.158162105414581e-10,-2.246044755804554,0,70,255.0,255.0,255.0
1,0.05,-2.462915801864412e-78,-3.000000000002147,0.001248534267413663,-3.147059080160082e-77,-2.743962140408923e-11,-0.030344284360825403,6.56777547163843e-76,5.726529684331666e-10,-2.1958758046436433,0,70,255.0,255.0,255.0
2,0.1,-3.283887735819216e-78,-3.0000000000028635,-0.0029926209767817836,-2.736573113182688e-78,-2.3860540351381956e-12,-0.1388838508139848,4.925831603728823e-76,4.2948972632487487e-10,-2.1457068534827326,0,70,255.0,255.0,255.0
3,0.15000000000000002,-2.873401768841814e-78,-3.000000000002505,-0.012598043354684063,1.7787725235687417e-77,1.5509351228398267e-11,-0.24491496970909868,3.2838877358192146e-76,2.863264842165832e-10,-2.095537902321822,0,70,255.0,255.0,255.0
4,0.2,-1.6419438679096085e-78,-3.000000000001432,-0.027442310488390898,3.0102304245009454e-77,2.6246594386520127e-11,-0.348437641046167,1.6419438679096076e-76,1.431632421082916e-10,-2.045368951160911,0,70,255.0,255.0,255.0
5,0.25,0.0,-3.0,-0.0474,3.4207163914783494e-77,2.9825675439227425e-11,-0.4494518648251898,0.0,0.0,-1.995200000000001,0,70,255.0,255.0,255.0
6,0.30000000000000004,1.6419438679096093e-78,-2.9999999999985683,-0.07234568951160913,3.010230424500947e-77,2.6246594386520127e-11,-0.5479576410461671,-1.641943867909609e-76,-1.4316324210829177e-10,-1.9450310488390894,0,70,255.0,255.0,255.0
7,0.35000000000000003,2.8734017688418145e-78,-2.999999999997495,-0.10215395664531597,1.778772523568741e-77,1.550935122839825e-11,-0.6439549697090988,-3.2838877358192165e-76,-2.8632648421658333e-10,-1.894862097678178,0,70,255.0,255.0,255.0
8,0.4,3.283887735819215e-78,-2.999999999997137,-0.13669937902321824,-2.736573113182686e-78,-2.3860540351382005e-12,-0.7374438508139849,-4.9258316037288234e-76,-4.2948972632487497e-10,-1.8446931465172665,0,70,255.0,255.0,255.0
9,0.45,2.462915801864411e-78,-2.999999999997853,-0.17585653426741368,-3.1470590801600824e-77,-2.7439621404089237e-11,-0.8284242843608254,-6.56777547163843e-76,-5.726529684331666e-10,-1.794524195356355,0,70,255.0,255.0,255.0
10,0.5,0.0,-3.0,-0.2195,-6.841432782956699e-77,-5.965135087845485e-11,-0.9168962703496203,-8.209719339548039e-76,-7.15816210541458e-10,-1.7443552441954369,0,70,255.0,255.0,255.0
11,0.55,-4.104859669774024e-78,-3.000000000003579,-0.2674993762209773,-8.89386261784371e-77,-7.75467561419913e-11,-1.0025611514545063,7.36364019794659e-91,7.237830359838992e-25,-1.6822399999999968,0,70,255.0,255.0,255.0
12,0.6000000000000001,-8.209719339548046e-78,-3.000000000007158,-0.3197043524419545,-6.841432782956691e-77,-5.965135087845477e-11,-1.08512027034962,8.209719339548054e-76,7.158162105414595e-10,-1.6201247558045566,0,70,255.0,255.0,255.0
13,0.65,-1.026214917443505e-77,-3.0000000000089475,-0.37595964055244296,-6.841432782956657e-78,-5.96513508784544e-12,-1.1645736270349618,1.641943867909608e-75,1.4316324210829167e-09,-1.5580095116091166,0,70,255.0,255.0,255.0
14,0.7000000000000001,-8.209719339548031e-78,-3.0000000000071583,-0.43610995244195444,9.578005896139394e-77,8.351189122983693e-11,-1.2409212215105316,2.462915801864413e-75,2.1474486316243755e-09,-1.4958942674136766,0,70,255.0,255.0,255.0
15,0.75,0.0,-3.0,-0.5,2.3945014740348445e-76,2.0877972807459197e-10,-1.3141630537763296,3.283887735819216e-75,2.8632648421658326e-09,-1.433779023218234,0,70,255.0,255.0,255.0
16,0.8,1.4777494811186484e-77,-2.999999999987115,-0.5674760056044821,3.256522004687389e-76,2.839404301814451e-10,-1.3843897531358083,1.641943867909583e-76,1.431632421082891e-10,-1.3752889511609108,0,70,255.0,255.0,255.0
17,0.8500000000000001,2.9965475589350365e-77,-2.999999999973873,-0.6383902335868665,2.5586958608258028e-76,2.2309605228542095e-10,-1.451691948892421,-2.9554989622372996e-75,-2.5769383579492544e-09,-1.3167988791035876,0,70,255.0,255.0,255.0
18,0.9,3.7764708961921e-77,-2.9999999999670726,-0.7125964587670098,3.0102304245009293e-77,2.6246594386519966e-11,-1.516069641046167,-6.075192311265552e-75,-5.297039958006793e-09,-1.2583088070462647,0,70,255.0,255.0,255.0
19,0.9500000000000001,3.037596155632773e-77,-2.999999999973515,-0.7899484559647687,-3.516496450439751e-76,-3.0660794351525856e-10,-1.5775228295970471,-9.19488566029381e-75,-8.017141558064336e-09,-1.1998187349889415,0,70,255.0,255.0,255.0
20,1.0,0.0,-3.0,-0.8703,-8.893862617843709e-76,-7.75467561419913e-10,-1.6360515145450611,-1.2314579009322059e-74,-1.0737243158121874e-08,-1.1413286629316222,0,70,255.0,255.0,255.0
21,1.05,-5.500511957497191e-77,-3.00000000004796,-0.9535062013610945,-1.2136701756965183e-75,-1.058214964583789e-09,-1.6917358360022605,-6.567775471638313e-76,-5.726529684331581e-10,-1.0860441953563569,0,70,255.0,255.0,255.0
22,1.1,-1.1165218301785341e-76,-3.0000000000973515,-1.0394275132105801,-9.550640165007542e-76,-8.32732858263229e-10,-1.7446559340806969,1.1001023914994396e-74,9.591937221255558e-09,-1.0307597277810916,0,70,255.0,255.0,255.0
23,1.1500000000000001,-1.4079668667324888e-76,-3.0000000001227627,-1.1279257243795182,-1.135677841970775e-76,-9.90212424582328e-11,-1.79481180878037,2.265882537715262e-74,1.975652741094427e-08,-0.9754752602058263,0,70,255.0,255.0,255.0
24,1.2000000000000002,-1.1329412688576269e-76,-3.0000000000987828,-1.2188626236989712,1.3108185212145102e-75,1.1429198828312e-09,-1.8422034601012798,3.431662683931085e-74,2.992111760063299e-08,-0.920190792630561,0,70,255.0,255.0,255.0
25,1.25,0.0,-3.0,-1.3121,3.3180948997339993e-75,2.89309051760506e-09,-1.8868308880434257,4.597442830146903e-74,4.008570779032165e-08,-0.8649063250552835,0,70,255.0,255.0,255.0
26,1.3,2.052429834887012e-76,-2.9999999998210463,-1.4075047889511398,4.529028502317335e-75,3.948919428153711e-09,-1.9290029028551494,2.4629158018643756e-75,2.147448631624339e-09,-0.821974267413669,0,70,255.0,255.0,255.0
27,1.35,4.1664325648206335e-76,-2.9999999996367235,-1.5049645135708138,3.5643864799204373e-75,3.107835380767494e-09,-1.9690283147847927,-4.104859669774028e-74,-3.579081052707297e-08,-0.7790422097720543,0,70,255.0,255.0,255.0
28,1.4000000000000001,5.2542203773107455e-76,-2.9999999995418776,-1.6043718437149177,4.241688325433038e-76,3.6983837544640987e-10,-2.006907123832355,-8.456010919734493e-74,-7.372906968577029e-08,-0.7361101521304397,0,70,255.0,255.0,255.0
29,1.4500000000000002,4.2280054598672346e-76,-2.9999999996313544,-1.705619449239348,-4.891624439814062e-75,-4.26507158780954e-09,-2.0426393299978365,-1.280716216969496e-73,-1.1166732884446759e-07,-0.6931780944888252,0,70,255.0,255.0,255.0
30,1.5,0.0,-3.0,-1.8086,-1.2382993337151627e-74,-1.0796894509000327e-08,-2.0762249332812375,-1.7158313419655406e-73,-1.4960558800316474e-07,-0.6502460368472036,0,70,255.0,255.0,255.0
31,1.55,-7.659668143798328e-76,-3.0000000006678564,-1.9131986428343466,-1.6902443833572822e-74,-1.4737462748031053e-08,-2.107212552577141,-9.194885660293673e-75,-8.017141558064183e-09,-0.589258734988946,0,70,255.0,255.0,255.0
32,1.6,-1.5549208429103996e-75,-3.000000001355756,-2.019270432506166,-1.3302481903180994e-74,-1.159860866480675e-08,-2.1351508067801324,1.531933628759667e-73,1.3357130488703637e-07,-0.5282714331306884,0,70,255.0,255.0,255.0
33,1.6500000000000001,-1.96089146425105e-75,-3.0000000017097275,-2.1266629007608118,-1.5831075459761407e-75,-1.380332259327405e-09,-2.16003969589021,3.155816114122271e-73,2.751597513321369e-07,-0.46728413127243074,0,70,255.0,255.0,255.0
34,1.7000000000000002,-1.5779080570611295e-75,-3.000000001375799,-2.2352235793436384,1.8255679238041743e-74,1.5917366468406964e-08,-2.1818792199073753,4.779698599484875e-73,4.167481977772375e-07,-0.4062968294141731,0,70,255.0,255.0,255.0
35,1.75,0.0,-3.0,-2.3448,4.621387844887251e-74,4.029448751839625e-08,-2.2006693788316274,6.40358108484747e-73,5.583366442223372e-07,-0.3453095275559015,0,70,255.0,255.0,255.0
36,1.8,2.85862427403063e-75,-2.999999997507528,-2.455241439711475,6.308074683197395e-74,5.5000931563970496e-08,-2.2165148868362885,3.4316626839310183e-74,2.99211176006323e-08,-0.2885107926305458,0,70,255.0,255.0,255.0
37,1.85,5.803040115159536e-75,-2.999999994940253,-2.566404156404525,4.9645541132803534e-74,4.328659927845949e-08,-2.229520458094682,-5.717248548061266e-73,-4.984944090210726e-07,-0.23171205770519013,0,70,255.0,255.0,255.0
38,1.9000000000000001,7.3181438192731225e-75,-2.9999999936192143,-2.6781461532418382,5.908261351361233e-75,5.151490661863189e-09,-2.2396860926068074,-1.1777663364515633e-72,-1.0269099356427773e-06,-0.17491332277983446,0,70,255.0,255.0,255.0
39,1.9500000000000002,5.888831682257796e-75,-2.9999999948654503,-2.7903254333861014,-6.813109251235289e-74,-5.9404394285818344e-08,-2.247011790372665,-1.7838078180970002e-72,-1.5553254622644824e-06,-0.11811458785447876,0,70,255.0,255.0,255.0
40,2.0,0.0,-3.0,-2.9028,-1.724725204583384e-73,-1.5038105556458467e-07,-2.2514975513922555,-2.389849299742434e-72,-2.0837409888861846e-06,-0.06131585292912334,0,70,255.0,255.0,255.0
41,2.0500000000000003,-1.0668530281742738e-74,-3.0000000093020316,-3.015427598319758,-2.35420543494323e-73,-2.0526626350785103e-07,-2.253127900077704,-1.2807162169693738e-73,-1.116673288444569e-07,-0.003898094488819885,0,70,255.0,255.0,255.0
42,2.1,-2.1657239617727746e-74,-3.0000000188832314,-3.128064941875737,-1.8527968262803317e-73,-1.6154778844903123e-07,-2.2518873608411374,2.133706056348539e-72,1.860406331197253e-06,0.053519663951483054,0,70,255.0,255.0,255.0
43,2.15,-2.731168381284144e-74,-3.0000000238134157,-3.240568486271837,-2.204993785946983e-74,-1.9225630388126296e-08,-2.247775933682556,4.395483734394016e-72,3.832479991238963e-06,0.110937422391786,0,70,255.0,255.0,255.0
44,2.2,-2.1977418671970064e-74,-3.0000000191624,-3.3527946871119596,2.542686908113698e-73,2.2170021067486635e-07,-2.2407936186019586,6.657261412439512e-72,5.804553651280691e-06,0.16835518083208945,0,70,255.0,255.0,255.0
45,2.25,0.0,-3.0,-3.4646,6.436762033844811e-73,5.612297347399425e-07,-2.2309404155993464,8.919039090484989e-72,7.776627311322403e-06,0.22577293927241016,0,70,255.0,255.0,255.0
46,2.3000000000000003,3.981549685294032e-74,-2.999999965284345,-3.575840167009497,8.786014271453182e-73,7.660641224674336e-07,-2.2181735128528905,4.7796985994844173e-73,4.167481977771976e-07,0.2849031705858255,0,70,255.0,255.0,255.0
47,2.35,8.082591835575143e-74,-2.9999999295268203,-3.6863680760925277,6.91473189379329e-73,6.029045545176656e-07,-2.2024500985407642,-7.963099370588031e-72,-6.943130915767943e-06,0.34403340189924037,0,70,255.0,255.0,255.0
48,2.4000000000000004,1.0192859143209265e-73,-2.9999999111271225,-3.7960359016708116,8.22914900865107e-74,7.175103089063537e-08,-2.183770172662966,-1.6404168601124579e-71,-1.4303010029313146e-05,0.4031636332126557,0,70,255.0,255.0,255.0
49,2.45,8.202084300562242e-74,-2.9999999284849497,-3.904695818166063,-9.489436707331262e-73,-8.273964484136474e-07,-2.162133735219498,-2.484523783166105e-71,-2.166288914285829e-05,0.4622938645260705,0,70,255.0,255.0,255.0
50,2.5,0.0,-3.0,-4.0122,-2.402232293079586e-72,-2.0945378833951852e-06,-2.1375407862103595,-3.3286307062197524e-71,-2.902276825640342e-05,0.5214240958394853,0,70,255.0,255.0,255.0
51,2.5500000000000003,-1.4859345713001853e-73,-3.0000001295605867,-4.118402133642258,-3.278985165086949e-72,-2.8589902263618834e-06,-2.1100820485107343,-1.783807818096831e-72,-1.5553254622643348e-06,0.576925412145518,0,70,255.0,255.0,255.0
52,2.6,-3.01646433805278e-73,-3.000000263009487,-4.223161953754152,-2.580613074889283e-72,-2.250070429621631e-06,-2.079848244995808,2.971869142600359e-71,2.5912117331874507e-05,0.6324267284515501,0,70,255.0,255.0,255.0
53,2.6500000000000004,-3.804026819155293e-73,-3.000000331678094,-4.326340707044918,-3.071160224865744e-73,-2.677784931744185e-07,-2.0468393756655794,6.122119067010428e-71,5.33795601260136e-05,0.6879280447575827,0,70,255.0,255.0,255.0
54,2.7,-3.0610595335051956e-73,-3.0000002668978007,-4.427799640223788,3.5415059921211346e-72,3.08788558297972e-06,-2.011055440520049,9.27236899142047e-71,8.084700292015244e-05,0.7434293610636149,0,70,255.0,255.0,255.0
55,2.75,0.0,-3.0,-4.5274,8.965252968933863e-72,7.816921798840798e-06,-1.9724964395592175,1.2422618915830511e-70,0.0001083144457142913,0.7989306773696505,0,70,255.0,255.0,255.0
56,2.8000000000000003,5.545583316671337e-73,-2.9999995164733075,-4.625000898421473,1.223733923320248e-71,1.0669896782980099e-05,-1.9310342931041733,6.65726141243889e-72,5.804553651280137e-06,0.8595551808321072,0,70,255.0,255.0,255.0
57,2.85,1.1257598168653609e-72,-2.999999018435232,-4.7204529088908656,9.630979110177807e-72,8.39737716396886e-06,-1.8865409214760067,-1.1091166633342627e-70,-9.67053384117301e-05,0.9201796842945634,0,70,255.0,255.0,255.0
58,2.9000000000000004,1.4196821362300244e-72,-2.999998762160501,-4.813604470149522,1.1461725998597897e-72,9.993629418070355e-07,-1.8390163246747169,-2.284805940792925e-70,-0.00019921523047474127,0.9808041877570202,0,70,255.0,255.0,255.0
59,2.95,1.1424029703964566e-72,-2.9999990039238473,-4.904304020938785,-1.3217080297751415e-71,-1.1524145883505237e-05,-1.7884605027003047,-3.4604952182515764e-70,-0.0003017251225377515,1.0414286912194763,0,70,255.0,255.0,255.0
60,3.0,0.0,-3.0,-4.9924,-3.3458779582655867e-71,-2.917314931196801e-05,-1.7348734555527698,-4.63618449571023e-70,-0.00040423501460076176,1.1020531946819236,0,70,255.0,255.0,255.0
61,3.0500000000000003,-2.0696398695385168e-72,-3.0000018045461814,-5.077746272671852,-4.567037176772298e-71,-3.982059690555852e-05,-1.6785807790725698,-2.4845237831658735e-71,-2.1662889142856222e-05,1.1496538645260683,0,70,255.0,255.0,255.0
62,3.1,-4.201392833656165e-72,-3.0000036632495863,-5.160218410682387,-3.594330336582193e-71,-3.133943822625381e-05,-1.6199080691001628,4.1392797390770165e-70,0.00036090923631504584,1.1972545343702128,0,70,255.0,255.0,255.0
63,3.1500000000000004,-5.298325863004569e-72,-3.0000046196799,-5.239697412356997,-4.2775743769525765e-72,-3.7296732740537276e-06,-1.5588553256355484,8.527011856470659e-70,0.0007434813617729515,1.2448552042143575,0,70,255.0,255.0,255.0
64,3.2,-4.263505928235306e-72,-3.0000037174068086,-5.316064276021072,4.932681519888454e-71,4.300869795104122e-05,-1.4954225486787271,1.2914743973864264e-69,0.0011260534872308534,1.292455874058502,0,70,255.0,255.0,255.0
65,3.25,0.0,-3.0,-5.3892,1.248698653616896e-70,0.00010887567544903124,-1.4296097382296986,1.7302476091257865e-69,0.0015086256126887554,1.3400565439026462,0,70,255.0,255.0,255.0
66,3.3000000000000003,7.724001146486932e-72,-2.9999932653419656,-5.458964410891123,1.704441478376894e-70,0.00014861249083925396,-1.360146590605542,9.272368991419567e-71,8.084700292014459e-05,1.4384693610636037,0,70,255.0,255.0,255.0
67,3.35,1.5679811517759298e-71,-2.999986328566424,-5.5251326483795875,1.3414223435310995e-70,0.00011696037574104634,-1.285762802123338,-1.5448002292973803e-69,-0.0013469316068484536,1.5368821782245603,0,70,255.0,255.0,255.0
68,3.4000000000000004,1.977362131578825e-71,-2.9999827591198995,-5.58745868042249,1.5964124907950504e-71,1.3919330154407814e-05,-1.2064583727830858,-3.1823241485089714e-69,-0.0027747102166170642,1.6352949953855176,0,70,255.0,255.0,255.0
69,3.45,1.5911620742544767e-71,-2.9999861264489174,-5.645696474976927,-1.8409018049778667e-70,-0.00016051064592065973,-1.1222333025847864,-4.819848067720547e-69,-0.004202488826385663,1.7337078125464742,0,70,255.0,255.0,255.0
70,3.5,0.0,-3.0,-5.6996,-4.6602068186410254e-70,-0.0004063295524841569,-1.033087591528439,-6.457371986932124e-69,-0.005630267436154262,1.8321206297074308,0,70,255.0,255.0,255.0
71,3.5500000000000003,-2.882636471640922e-71,-3.0000259340859556,-5.7489720837636575,-6.361062195830346e-70,-0.0006026293664515591,-0.9419528585052657,-3.460495218251256e-70,-0.002221725122541785,1.8132686912194802,0,70,255.0,255.0,255.0
72,3.6,-5.851785323738104e-71,-3.0000574224847174,-5.793810995799267,-5.006256340466178e-70,-0.000628502064738337,-0.8517607224064908,5.765272943281819e-69,0.0011868171910706616,1.7944167527315298,0,70,255.0,255.0,255.0
73,3.6500000000000004,-7.379615940014844e-71,-3.000085943840501,-5.834163865953046,-5.9578925254849505e-71,-0.00048394764734449136,-0.7625111832321126,1.1876595408388817e-68,0.004595359504683139,1.7755648142435791,0,70,255.0,255.0,255.0
74,3.7,-5.938297704194374e-71,-3.000102976797524,-5.870077824071218,6.870339067922623e-70,-0.0001689661142700242,-0.6742042409821328,1.7987917873495762e-68,0.008003901818295585,1.7567128757556285,0,70,255.0,255.0,255.0
75,3.75,0.0,-3.0001,-5.9016,1.7392128620947206e-69,0.0003164425344850641,-0.5868398956565505,2.409924033860271e-68,0.011412444131908034,1.7378609372676825,0,70,255.0,255.0,255.0
76,3.8000000000000003,1.0758145771914994e-70,-3.000066198314213,-5.928832854054247,2.37398073049445e-69,0.0011099049749637019,-0.503737975373395,1.291474397386305e-69,0.020326053487237317,1.5862158740585177,0,70,255.0,255.0,255.0
77,3.85,2.1839160143176488e-70,-2.9999815814947075,-5.952100168423347,1.8683603018333617e-69,0.0023490478832087934,-0.4282183082506985,-2.15162915438299e-68,0.029239662842566516,1.4345708108493542,0,70,255.0,255.0,255.0
78,3.9000000000000004,2.754110162848055e-70,-2.999823865518096,-5.971781055765325,2.223515761114472e-70,0.00403387125922036,-0.36028089428845955,-4.43240574850463e-68,0.0381532721978958,1.2829257476401894,0,70,255.0,255.0,255.0
79,3.95,2.216202874252304e-70,-2.99957076636099,-5.9882546287382015,-2.5640454466712624e-69,0.006164375102998372,-0.2999257334866794,-6.713182342626251e-68,0.047066881553225,1.131280684431026,0,70,255.0,255.0,255.0
80,4.0,0.0,-2.9992,-6.0019,-6.490830766514779e-69,0.008740559414542843,-0.2471528258453574,-8.993958936747873e-68,0.055980490908554253,0.9796356212218631,0,70,255.0,255.0,255.0
81,4.05,-4.014994661601865e-70,-2.9986900726571935,-6.013082100019355,-8.859816702394762e-69,0.011715009466597183,-0.2011112400011495,-4.819848067720866e-69,0.06299751117361972,0.862027812546459,0,70,255.0,255.0,255.0
82,4.1000000000000005,-8.150485524896815e-70,-2.998022651536453,-6.022109130507345,-6.972815573286794e-69,0.015040310531904856,-0.1609500445907111,8.029989323203851e-68,0.07001453143868533,0.7444200038710528,0,70,255.0,255.0,255.0
83,4.15,-1.0278479057390735e-69,-2.9971801940871154,-6.029275110985656,-8.298273791909382e-70,0.018716462610465747,-0.12666923961404372,1.654196345317964e-67,0.0770315517037508,0.6268121951956487,0,70,255.0,255.0,255.0
84,4.2,-8.270981726589777e-70,-2.996145157758519,-6.034874060975978,9.569147879892787e-69,0.022743465702279905,-0.09826882507114651,2.5053937583155424e-67,0.08404857196881627,0.5092043865202446,0,70,255.0,255.0,255.0
85,4.25,0.0,-2.9949,-6.0392,2.4224110203964398e-68,0.027121319807347343,-0.07574880096201943,3.3565911713131204e-67,0.09106559223388169,0.3915965778448408,0,70,255.0,255.0,255.0
86,4.3,1.4984164069215972e-69,-2.9934271110570134,-6.042554745868332,3.306528607908459e-68,0.0318540571586514,-0.059577064622007625,1.7987917873496794e-68,0.09824390181828131,0.2552728757556336,0,70,255.0,255.0,255.0
87,4.3500000000000005,3.0418026085269593e-69,-2.9917086123594814,-6.045271309547275,2.6022901991313803e-68,0.036945709989175526,-0.05022151338645604,-2.996832813843241e-67,0.10542221140268106,0.1189491736664241,0,70,255.0,255.0,255.0
88,4.4,3.835980606671487e-69,-2.9897265581334422,-6.0476905002920525,3.096957940652288e-69,0.04239627829891956,-0.04768214725536503,-6.173544806421394e-67,0.11260052098708068,-0.01737452842278303,0,70,255.0,255.0,255.0
89,4.45,3.0867724032106794e-69,-2.9874630026049354,-6.050153127357886,-3.5712546072899904e-68,0.04820576208788356,-0.05195896622873434,-9.350256798999545e-67,0.1197788305714803,-0.15369823051199016,0,70,255.0,255.0,255.0
90,4.5,0.0,-2.9849,-6.053,-9.04056100493428e-68,0.05437416135606754,-0.063051970306564,-1.2526968791577696e-66,0.12695714015587978,-0.29002193260119713,0,70,255.0,255.0,255.0
91,4.55,-5.592166161526203e-69,-2.982019883114753,-6.056554116507316,-1.2340132761394359e-67,0.060884761898795214,-0.07989250151081817,-6.713182342626644e-68,0.13346688155322822,-0.3835993155689725,0,70,255.0,255.0,255.0
92,4.6000000000000005,-1.1352161881618156e-68,-2.9788060990256224,-6.0610672313035545,-9.711879239196845e-68,0.06772084951139043,-0.10141190186346152,1.1184332323052578e-66,0.13997662295057675,-0.4771766985367495,0,70,255.0,255.0,255.0
93,4.65,-1.4316074520946878e-68,-2.975242373379116,-6.066773287846136,-1.1558004383418289e-68,0.07488242419385296,-0.1276101713644933,2.303998288036761e-66,0.1464863643479252,-0.5707540815045249,0,70,255.0,255.0,255.0
94,4.7,-1.1519991440183738e-68,-2.97131243182174,-6.0739062295924775,1.3328103641170684e-67,0.0823694859461829,-0.1584873100139138,3.489563343768264e-66,0.15299610574527361,-0.6643314644723002,0,70,255.0,255.0,255.0
95,4.75,0.0,-2.967,-6.0827,3.373983299934068e-67,0.09018203476838028,-0.19404331781172307,4.675128399499767e-66,0.1595058471426224,-0.7579088474400746,0,70,255.0,255.0,255.0
96,4.800000000000001,2.0870248239183624e-68,-2.962294956483975,-6.093303188102403,4.6054002437669e-67,0.0979508952461665,-0.22915692933471926,2.505393758314911e-67,0.1512485719688216,-0.6466356134797535,0,70,255.0,255.0,255.0
97,4.8500000000000005,4.236684491794567e-68,-2.957211791538028,-6.105522965238505,3.624522675765601e-67,0.10530689196526252,-0.25870687915969887,-4.174049647836706e-66,0.14299129679502093,-0.5353623795194344,0,70,255.0,255.0,255.0
98,4.9,5.342831747711602e-68,-2.9517711483500944,-6.1190811483234056,4.313505959302086e-68,0.11225002492566855,-0.28269316728666255,-8.598638671504903e-66,0.13473402162122028,-0.42408914555911537,0,70,255.0,255.0,255.0
99,4.95,4.299319335752429e-68,-2.9459936701081064,-6.133699554272205,-4.9741159957392725e-67,0.11878029412738451,-0.30111579371561026,-1.30232276951731e-65,0.12647674644741963,-0.3128159115987963,0,70,255.0,255.0,255.0
100,5.0,0.0,-2.9399,-6.1491,-1.2591877099242844e-66,0.12489769957041044,-0.31397475844654205,-1.7447816718841301e-65,0.11821947127361887,-0.2015426776384781,0,70,255.0,255.0,255.0
101,5.050000000000001,-7.788882679520817e-68,-2.9335066909493466,-6.165061131083072,-1.7187587698928165e-66,0.130847657116538,-0.32467978115030394,-9.350256798997199e-67,0.11977883057148017,-0.22665823051199102,0,70,255.0,255.0,255.0
102,5.1000000000000005,-1.581152177901645e-67,-2.9268139348222646,-6.181588907742425,-1.352690277914272e-66,0.13687558262755853,-0.3366405814977413,1.5577765359041566e-65,0.12133818986934146,-0.2517737833855035,0,70,255.0,255.0,255.0
103,5.15,-1.993971953875172e-67,-2.9198178332205096,-6.1987461188602415,-1.609822339886654e-67,0.14298147610347212,-0.3498571594888542,3.209055639798286e-65,0.12289754916720273,-0.276889336259016,0,70,255.0,255.0,255.0
104,5.2,-1.6045278198991336e-67,-2.9125144877458364,-6.2165955533187045,1.8563653618840026e-66,0.14916533754427874,-0.36432951512364276,4.860334743692414e-65,0.12445690846506402,-0.3020048891325285,0,70,255.0,255.0,255.0
105,5.25,0.0,-2.9049,-6.2352,4.6993525097037313e-66,0.15542716694997846,-0.38005764840210693,6.511613847586542e-65,0.12601626776292574,-0.32712044200604007,0,70,255.0,255.0,255.0
106,5.300000000000001,2.906850589416491e-67,-2.896971879718638,-6.254608287565307,6.414495055194576e-66,0.1616824762876835,-0.3962039460640657,3.4895633437673827e-66,0.12419610574527289,-0.3187314644723027,0,70,255.0,255.0,255.0
107,5.3500000000000005,5.900940262427123e-67,-2.888733269172913,-6.2748134037917955,5.048308844080528e-66,0.16784677752450583,-0.41193079484933737,-5.813701178832956e-65,0.12237594372762006,-0.31034248693856553,0,70,255.0,255.0,255.0
108,5.4,7.441604640729526e-67,-2.880188718767869,-6.295794376235629,6.007938763616401e-67,0.17392007066044549,-0.4272381947579222,-1.1976358692042651e-64,0.12055578170996724,-0.30195350940482835,0,70,255.0,255.0,255.0
109,5.45,5.988179346021293e-67,-2.87134277890855,-6.317530232452976,-6.92804984796208e-66,0.1799023556955025,-0.44212614578982007,-1.8139016205252343e-64,0.11873561969231443,-0.29356453187109116,0,70,255.0,255.0,255.0
110,5.5,0.0,-2.8622,-6.34,-1.753822232889064e-65,0.18579363262967685,-0.45659464794503113,-2.4301673718462032e-64,0.11691545767466138,-0.28517555433735264,0,70,255.0,255.0,255.0
111,5.550000000000001,-1.084851408971388e-66,-2.8527641901761007,-6.3631865186556995,-2.393922145088548e-65,0.19163843773272887,-0.4708724345934349,-1.3023227695169792e-65,0.1168767464474163,-0.2859359115987914,0,70,255.0,255.0,255.0
112,5.6000000000000005,-2.2022608871806852e-66,-2.8430361884860833,-6.387087877090394,-1.8840545098407837e-65,0.19748130727441854,-0.48518823910491043,2.169702817942767e-64,0.11683803522017122,-0.28669626886023014,0,70,255.0,255.0,255.0
113,5.65,-2.7772446609042936e-66,-2.833016091708015,-6.411705976197241,-2.2421932714578898e-66,0.20332224125474596,-0.49954206147945784,4.469637912837232e-64,0.11679932399292614,-0.2874566261216689,0,70,255.0,255.0,255.0
114,5.7,-2.2348189564186034e-66,-2.8227039966199645,-6.437042716869391,2.585583402996432e-65,0.2091612396737111,-0.5139339017170772,6.769573007731695e-64,0.11676061276568106,-0.28821698338310764,0,70,255.0,255.0,255.0
115,5.75,0.0,-2.8121,-6.4631,6.545353680585882e-65,0.21499830253131405,-0.5283637598177685,9.06950810262616e-64,0.1167219015384362,-0.2889773406445455,0,70,255.0,255.0,255.0
116,5.800000000000001,4.048720576943903e-66,-2.801204159576958,-6.489878437811898,8.934239074834736e-65,0.22083577278140168,-0.5427543155621956,4.860334743691178e-65,0.11677690846506503,-0.2866448891325296,0,70,255.0,255.0,255.0
117,5.8500000000000005,8.218949522480026e-66,-2.7900163768827544,-6.517373487846627,7.031387154955081e-65,0.22667599337782063,-0.5570282487310216,-8.097441153887771e-64,0.11683191539169387,-0.2843124376205137,0,70,255.0,255.0,255.0
118,5.9,1.036481817954422e-65,-2.778536514400071,-6.545579318975406,8.367979209469934e-66,0.232518964320571,-0.5711855593242469,-1.668091578214466e-63,0.11688692231832269,-0.2819799861084979,0,70,255.0,255.0,255.0
119,5.95,8.340457891072281e-66,-2.7667644346115914,-6.5744901000694576,-9.649528627189519e-65,0.23836468560965285,-0.5852262473418712,-2.526439041040155e-63,0.11694192924495153,-0.279647534596482,0,70,255.0,255.0,255.0
120,6.0,0.0,-2.7547,-6.6041,-2.4427592489454465e-64,0.24421315724506612,-0.5991503127838949,-3.3847865038658435e-63,0.11699693617158036,-0.2773150830844635,0,70,255.0,255.0,255.0
121,6.050000000000001,-1.5110030898804225e-65,-2.7423439715160653,-6.634403730096712,-3.33430341542504e-64,0.2500104711416636,-0.6129903031577841,-1.8139016205247775e-64,0.11489561969231456,-0.2762845318710962,0,70,255.0,255.0,255.0
122,6.1000000000000005,-3.067353720273942e-65,-2.7297007039828993,-6.6653981715231,-2.6241494109979536e-64,0.2557027192142976,-0.6267787659710047,3.022006179760832e-63,0.1127943032130488,-0.2752539806577289,0,70,255.0,255.0,255.0
123,6.15,-3.8682028057272595e-65,-2.716775450691702,-6.6970807479011345,-3.1229723566421787e-65,0.26128990146296843,-0.6405157012235568,6.22540252157414e-63,0.11069298673378303,-0.27422342944436157,0,70,255.0,255.0,255.0
124,6.2,-3.1127012607870535e-65,-2.7035734649336693,-6.729448882852778,3.601253110576166e-64,0.2667720178876759,-0.6542011089154407,9.428798863387449e-63,0.10859167025451727,-0.2731928782309943,0,70,255.0,255.0,255.0
125,6.25,0.0,-2.6901,-6.7625,9.116501627723197e-64,0.27214906848842013,-0.6678349890466562,1.2632195205200756e-62,0.10649035377525262,-0.2721623270176252,0,70,255.0,255.0,255.0
126,6.300000000000001,5.639140301827298e-65,-2.6763591543587806,-6.7962314418012575,1.2443789754216682e-63,0.27749034265194367,-0.6814124718066744,6.769573007729986e-64,0.10716061276568692,-0.2709369833830962,0,70,255.0,255.0,255.0
127,6.3500000000000005,1.1447519928847766e-64,-2.662350407185647,-6.830640226060972,9.793458928496306e-64,0.2828651297649889,-0.6949286873849659,-1.1278280603654548e-62,0.10783087175612122,-0.2697116397485672,0,70,255.0,255.0,255.0
128,6.4,1.4436329404954616e-64,-2.648072082833123,-6.865723289420059,1.1655091505621785e-64,0.28827342982755577,-0.708383635781531,-2.323351850808209e-62,0.1085011307465555,-0.26848629611403824,0,70,255.0,255.0,255.0
129,6.45,1.1616759254040981e-64,-2.633522505653733,-6.90147756851943,-1.344005957958571e-63,0.2937152428396444,-0.7217773169963697,-3.5188756412509642e-62,0.1091713897369898,-0.2672609524795092,0,70,255.0,255.0,255.0
130,6.5,0.0,-2.6187,-6.9379,-3.4023247261947343e-63,0.2991905688012548,-0.7351097310294818,-4.71439943169372e-62,0.10984164872742364,-0.2660356088449767,0,70,255.0,255.0,255.0
131,6.550000000000001,-2.1045558117428776e-64,-2.603603411048812,-6.974987302698261,-4.6440855601441706e-63,0.30466815825056404,-0.7483678096155185,-2.526439041039523e-63,0.10926192924494317,-0.264287534596481,0,70,255.0,255.0,255.0
132,6.6000000000000005,-4.272272599511713e-64,-2.5882336672745123,-7.012735324233011,-3.654968630298728e-63,0.31011676172574915,-0.7615384844891301,4.209111623485736e-62,0.10868220976246272,-0.2625394603479854,0,70,255.0,255.0,255.0
133,6.65,-5.3877114814091216e-64,-2.572592217975806,-7.051139694418633,-4.3497393665844815e-64,0.3155363792268102,-0.774621755650317,8.670867151075424e-62,0.10810249027998226,-0.2607913860994898,0,70,255.0,255.0,255.0
134,6.7,-4.33543357553769e-64,-2.5566805124514,-7.090196043069503,5.015898520776666e-63,0.32092701075374735,-0.7876176230990789,1.3132622678665113e-61,0.1075227707975018,-0.2590433118509942,0,70,255.0,255.0,255.0
135,6.75,0.0,-2.5405,-7.1299,1.2697648742006618e-62,0.3262886563065604,-0.8005260868354164,1.75943782062548e-61,0.10694305131502224,-0.25729523760249773,0,70,255.0,255.0,255.0
136,6.800000000000001,7.854309216788779e-64,-2.5240528014459698,-7.170247347405704,1.733196326515501e-62,0.331581024345799,-0.813356289731254,9.428798863385057e-63,0.10475167025451869,-0.25591287823099956,0,70,255.0,255.0,255.0
137,6.8500000000000005,1.5944338405162072e-63,-2.5073437237163034,-7.211234477006983,1.3640528628345278e-62,0.3367638233320123,-0.8261173746585165,-1.5708618433577493e-61,0.10256028919401519,-0.2545305188595014,0,70,255.0,255.0,255.0
138,6.9,2.0107212985141025e-63,-2.4903782452636523,-7.252857932905412,1.6233448315775742e-63,0.3418370532652005,-0.838809341617204,-3.236011675349349e-61,0.10036890813351168,-0.25314815948800323,0,70,255.0,255.0,255.0
139,6.95,1.618005837674664e-63,-2.4731618445406673,-7.29511425920256,-1.8719588125148097e-62,0.34680071414536345,-0.8514321906073167,-4.901161507340948e-61,0.09817752707300817,-0.2517658001165051,0,70,255.0,255.0,255.0
140,7.0,0.0,-2.4557,-7.338,-4.738827024183174e-62,0.3516548059725013,-0.8639859216288543,-6.566311339332547e-61,0.09598614601250421,-0.25038344074500074,0,70,255.0,255.0,255.0
141,7.050000000000001,-2.931268105541224e-63,-2.4379965831673074,-7.3815121076789305,-6.468376750047587e-62,0.356495744366239,-0.8764950314594668,-3.5188756412500635e-62,0.09765138973699908,-0.24998095247949514,0,70,255.0,255.0,255.0
142,7.1000000000000005,-5.950508102113656e-63,-2.4200490378602724,-7.42564916773906,-5.090714588308238e-62,0.3614199449462013,-0.8889840168768041,5.862536211082424e-61,0.0993166334614939,-0.24957846421398955,0,70,255.0,255.0,255.0
143,7.15,-7.504114045915497e-63,-2.401853200969584,-7.470410173959722,-6.058405389651846e-63,0.3664274077123883,-0.9014528778808658,1.2076959986289855e-60,0.10098187718598874,-0.24917597594848395,0,70,255.0,255.0,255.0
144,7.2,-6.038479993144894e-63,-2.38340490938593,-7.515794120120257,6.986245397981574e-62,0.37151813266480016,-0.9139016144716523,1.8291383761497284e-60,0.10264712091048356,-0.24877348768297836,0,70,255.0,255.0,255.0
145,7.25,0.0,-2.3647,-7.5618,1.768554322253203e-61,0.37669211980343664,-0.9263302266491635,2.4505807536704708e-60,0.10431236463497662,-0.2483709994174763,0,70,255.0,255.0,255.0
146,7.300000000000001,1.093964150048602e-62,-2.3457360658847994,-7.608425821878578,2.4140310673674846e-61,0.3818439981892486,-0.938679584430876,1.31326226786618e-61,0.10176277079749788,-0.2456033118510113,0,70,255.0,255.0,255.0
147,7.3500000000000005,2.2207598567938417e-62,-2.3265177248426063,-7.655665652036783,1.8998805490398424e-61,0.38686839688318647,-0.9508905578342648,-2.187928300097194e-60,0.09921317696001919,-0.24283562428454633,0,70,255.0,255.0,255.0
148,7.4,2.800573488514788e-62,-2.3070513508580124,-7.703512571255699,2.26102767270298e-62,0.39176531588525043,-0.9629631468593305,-4.5071828269810053e-60,0.09666358312254049,-0.24006793671808138,0,70,255.0,255.0,255.0
149,7.45,2.2535914134904904e-62,-2.287343317915613,-7.75195966031641,-2.6073022779411466e-61,0.3965347551954405,-0.9748973515060728,-6.826437353864818e-60,0.09411398928506179,-0.2373002491516164,0,70,255.0,255.0,255.0
150,7.5,0.0,-2.2674,-7.801,-6.600334586594495e-61,0.4011767148137566,-0.986693171774492,-9.145691880748627e-60,0.09156439544758133,-0.23453256158514968,0,70,255.0,255.0,255.0
151,7.550000000000001,-4.0827297896402845e-62,-2.247226353293492,-7.850627804806761,-9.009286594465179e-61,0.4057762628767711,-0.9984186308170331,-4.901161507339699e-61,0.09241752707299576,-0.23448580011648978,0,70,255.0,255.0,255.0
152,7.6000000000000005,-8.287988616964002e-62,-2.2268216627693014,-7.900841824113813,-7.090450737328545e-61,0.41041846752105626,-1.010141751786141,8.165459579280532e-60,0.09327065869841018,-0.2344390386478299,0,70,255.0,255.0,255.0
153,7.65,-1.04518825494676e-61,-2.2061837955983647,-7.951641941017484,-8.438270151846738e-62,0.4151033287466121,-1.0218625346818162,1.6821035309295038e-59,0.09412379032382462,-0.23439227717917,0,70,255.0,255.0,255.0
154,7.7,-8.41051765464747e-62,-2.185310618951619,-8.003028038614104,9.73058457196643e-61,0.41983084655343866,-1.033580979504058,2.547661103930954e-59,0.09497692194923904,-0.2343455157105101,0,70,255.0,255.0,255.0
155,7.75,0.0,-2.1642,-8.055,2.4632784024124775e-60,0.42460102094153596,-1.045297086252867,3.4132186769324034e-59,0.09583005357465169,-0.23429875424184665,0,70,255.0,255.0,255.0
156,7.800000000000001,1.5236955008512533e-61,-2.142850520941231,-8.10755655889438,3.362311531049323e-60,0.42937095030366457,-1.0569418923009875,1.8291383761492644e-60,0.09496712091049185,-0.2314934876829678,0,70,255.0,255.0,255.0
157,7.8500000000000005,3.0931194611062165e-61,-2.121263624080187,-8.160691851507968,2.6461922400274334e-60,0.4340977330325852,-1.068446435021164,-3.047391001702494e-59,0.09410418824633203,-0.22868822112408896,0,70,255.0,255.0,255.0
158,7.9,3.9006956709355616e-61,-2.099441466748526,-8.214398864674363,3.1492052934683925e-61,0.4387813691282978,-1.0798107144133964,-6.277695841019912e-59,0.09324125558217222,-0.22588295456521015,0,70,255.0,255.0,255.0
159,7.95,3.138847920509939e-61,-2.0773862062779105,-8.268670585227174,-3.6315036009924573e-60,0.44342185859080235,-1.0910347304776848,-9.508000680337332e-59,0.0923783229180124,-0.22307768800633132,0,70,255.0,255.0,255.0
160,8.0,0.0,-2.0551,-8.3235,-9.19308015099046e-60,0.448019201420099,-1.1021184832140292,-1.273830551965475e-58,0.09151539025385169,-0.22027242144745074,0,70,255.0,255.0,255.0
161,8.05,-5.686509024440985e-61,-2.032585162941581,-8.378881159615721,-1.2548317464750772e-59,0.452563935908572,-1.1131257999790072,-6.826437353863078e-60,0.09027398928506576,-0.22002024915165705,0,70,255.0,255.0,255.0
162,8.1,-1.1543678982728377e-60,-2.00984464090995,-8.434812369854319,-9.875723886376978e-60,0.4570466003486055,-1.1241205081291947,1.1373018048881707e-58,0.08903258831627987,-0.21976807685586336,0,70,255.0,255.0,255.0
163,8.15,-1.4557594428795486e-60,-1.986881537407528,-8.491293000285062,-1.1752994158688885e-60,0.4614671947402,-1.1351026076645934,2.3428679833150153e-58,0.08779118734749396,-0.2195159045600697,0,70,255.0,255.0,255.0
164,8.200000000000001,-1.1714339916574886e-60,-1.963698955936737,-8.548322420477202,1.3552955946773505e-59,0.465825719083355,-1.146072098585202,3.5484341617418596e-58,0.08654978637870803,-0.219263732264276,0,70,255.0,255.0,255.0
165,8.25,0.0,-1.9403,-8.6059,3.430904220154936e-59,0.4701221733780708,-1.157028980891021,4.754000340168661e-58,0.0853083854099208,-0.21901155996848054,0,70,255.0,255.0,255.0
166,8.3,2.1222340596912686e-60,-1.9166872272924422,-8.66402440264274,4.683095832795377e-59,0.47438930606204954,-1.1679309077829951,2.547661103930309e-59,0.08537692194922597,-0.2170655157104793,0,70,255.0,255.0,255.0
167,8.35,4.3081596469807304e-60,-1.8928610122800125,-8.722691469074752,3.6856703305480475e-59,0.47865986557299334,-1.178735532462069,-4.244468119382439e-58,0.08544545848853113,-0.21511947145247812,0,70,255.0,255.0,255.0
168,8.4,5.432968204424639e-60,-1.8688211836213602,-8.781896334185397,4.3862771341287214e-60,0.48293385191090255,-1.1894428549282428,-8.743702349158067e-58,0.0855139950278363,-0.21317342719447685,0,70,255.0,255.0,255.0
169,8.450000000000001,4.3718511745789657e-60,-1.8445675699751387,-8.841634132864028,-5.058032018610144e-59,0.4872112650757771,-1.200052875181517,-1.3242936578933696e-57,0.08558253156714146,-0.2112273829364756,0,70,255.0,255.0,255.0
170,8.5,0.0,-1.8201,-8.9019,-1.2804308865520697e-58,0.4914921050676167,-1.2105655932218904,-1.7742170808709164e-57,0.08565106810644663,-0.20928133867847087,0,70,255.0,255.0,255.0
171,8.55,-7.920285336320977e-60,-1.7954187278886475,-8.96268922981333,-1.7477551584706427e-58,0.4957508398432284,-1.2209905688890106,-9.508000680334929e-59,0.0846983229180174,-0.20771768800633017,0,70,255.0,255.0,255.0
172,8.6,-1.6078270689650087e-59,-1.7705257099700011,-9.023997753846674,-1.3755108933554485e-58,0.4999619373594184,-1.2313373620225234,1.5840570672641578e-57,0.08374557772958822,-0.20615403733418952,0,70,255.0,255.0,255.0
173,8.65,-2.0276113374819e-59,-1.7454233281070295,-9.085821662973354,-1.6369809120646037e-59,0.5041253976161871,-1.2416059726224293,3.263194141331725e-57,0.082792832541159,-0.20459038666204882,0,70,255.0,255.0,255.0
174,8.700000000000001,-1.6315970706658376e-59,-1.7201139641627052,-9.148157048066691,1.887683247976322e-58,0.5082412206135345,-1.2517964006887285,4.942331215399292e-57,0.08184008735272978,-0.2030267359899081,0,70,255.0,255.0,255.0
175,8.75,0.0,-1.6946,-9.211,4.778633124192785e-58,0.51230940635146,-1.2619086462214204,6.621468289466801e-57,0.08088734216430016,-0.20146308531776924,0,70,255.0,255.0,255.0
176,8.8,2.9558907285592632e-59,-1.6688834611529655,-9.274346678103948,6.522711050603034e-58,0.5163513345650355,-1.2719468166609718,3.5484341617409476e-58,0.08078978637871277,-0.20006373226428734,0,70,255.0,255.0,255.0
177,8.85,6.000492311161961e-59,-1.6429649478399846,-9.338193515538553,5.13347654036699e-58,0.5203883849893313,-1.281915019447849,-5.911781457118389e-57,0.08069223059312539,-0.1986643792108055,0,70,255.0,255.0,255.0
178,8.9,7.567148529485135e-59,-1.6168447039505205,-9.402537013921187,6.1092959348455355e-59,0.5244205576243479,-1.2918132545820524,-1.2178406330411094e-56,0.08059467480753799,-0.19726502615732355,0,70,255.0,255.0,255.0
179,8.950000000000001,6.089203165205452e-59,-1.5905229733740371,-9.467373674869215,-7.044929790044277e-58,0.5284478524700853,-1.3016415220635817,-1.84450312037038e-56,0.0804971190219506,-0.19586567310384165,0,70,255.0,255.0,255.0
180,9.0,0.0,-1.564,-9.5327,-1.783410161021907e-57,0.5324702695265431,-1.3113998218924363,-2.4711656076996284e-56,0.0803995632363641,-0.19446632005036157,0,70,255.0,255.0,255.0
181,9.05,-1.1031534380604955e-58,-1.5372762274994893,-9.598512857770888,-2.434308904394149e-57,0.5364758218966309,-1.3211101644671068,-1.324293657893029e-57,0.079822531567142,-0.1939473829364477,0,70,255.0,255.0,255.0
182,9.1,-2.2394142175682834e-58,-1.5103528986700616,-9.664810583999115,-1.9158395268112512e-57,0.5404525226832573,-1.330794560186081,2.2063068761209393e-56,0.07924549989791992,-0.19342844582253385,0,70,255.0,255.0,255.0
183,9.15,-2.8240982780458647e-58,-1.4832314560908881,-9.731591881341902,-2.280020282731753e-58,0.5444003718864228,-1.3404530090493598,4.545043118031266e-56,0.07866846822869782,-0.19290950870861998,0,70,255.0,255.0,255.0
184,9.200000000000001,-2.272521559015596e-58,-1.4559133423411428,-9.798855452456458,2.629203591220079e-57,0.5483193695061271,-1.3500855110569434,6.88377935994159e-56,0.07809143655947572,-0.1923905715947061,0,70,255.0,255.0,255.0
185,9.25,0.0,-1.4284,-9.8666,6.655777331668349e-57,0.5522095155423702,-1.3596920662088308,9.222515601851834e-56,0.07751440489025097,-0.19187163448078692,0,70,255.0,255.0,255.0
186,9.3,4.117024679386056e-58,-1.4006932288490754,-9.934823490812505,9.084964512516294e-57,0.5560493778484444,-1.3692285254705991,4.94233121539802e-57,0.07608008735272075,-0.18958673598993767,0,70,255.0,255.0,255.0
187,9.35,8.357607639156939e-58,-1.3727962574797703,-10.003520948464985,7.150010453208305e-57,0.5598175242776423,-1.3786507398078245,-8.234049358771919e-56,0.07464576981519057,-0.1873018374990885,0,70,255.0,255.0,255.0
188,9.4,1.0539678259234946e-57,-1.3447126716859261,-10.072686660711213,8.509151537442456e-58,0.5635139548299636,-1.3879587092205077,-1.696233183908395e-55,0.07321145227766034,-0.1850169390082392,0,70,255.0,255.0,255.0
189,9.450000000000001,8.481165919541842e-58,-1.3164460572613876,-10.142314915304961,-9.812321385875885e-57,0.5671386695054084,-1.3971524337086487,-2.5690614319395983e-55,0.07177713474013012,-0.18273204051738995,0,70,255.0,255.0,255.0
190,9.5,0.0,-1.288,-10.2124,-2.483969916565149e-56,0.5706916683039766,-1.4062319132722467,-3.441889679970771e-55,0.07034281720260172,-0.18044714202653722,0,70,255.0,255.0,255.0
191,9.55,-1.5364945279483727e-57,-1.2593772571042061,-10.282936378979096,-3.390554914567102e-56,0.5742226667095904,-1.4152077336505056,-1.8445031203699105e-56,0.0708971190219538,-0.17858567310381301,0,70,255.0,255.0,255.0
192,9.600000000000001,-3.1191016339059945e-57,-1.2305772714108574,-10.353919222140952,-2.6684202286021425e-56,0.5777813802061721,-1.4240904805826284,3.0729890558967887e-55,0.07145142084130589,-0.1767242041810888,0,70,255.0,255.0,255.0
193,9.65,-3.933461475889392e-57,-1.2015986571654063,-10.425343875813255,-3.175658586703822e-57,0.5813678087937211,-1.4328801540686145,6.330428423830452e-55,0.07200572266065795,-0.17486273525836465,0,70,255.0,255.0,255.0
194,9.700000000000001,-3.1652142119151773e-57,-1.1724400286133025,-10.49720568632371,3.6620081952283452e-56,0.5849819524722378,-1.4415767541084648,9.587867791764232e-55,0.07256002448001003,-0.17300126633564045,0,70,255.0,255.0,255.0
195,9.75,0.0,-1.1431,-10.5695,9.27030193309376e-56,0.5886238112417221,-1.4501802807021784,1.2845307159697896e-54,0.07311432629935943,-0.1711397974129163,0,70,255.0,255.0,255.0
196,9.8,5.734275643854885e-57,-1.1135777427340974,-10.642222993271117,1.2653723207016776e-55,0.5922599553131931,-1.4587405399273694,6.8837793599398145e-56,0.07233143655947706,-0.17127057159472087,0,70,255.0,255.0,255.0
197,9.850000000000001,1.1640645771708268e-56,-1.0838746568767965,-10.715374162971225,9.95867986908775e-56,0.59585695489767,-1.4673073378616506,-1.1468551287709934e-54,0.07154854681959469,-0.17140134577652547,0,70,255.0,255.0,255.0
198,9.9,1.4679878077634066e-56,-1.0539926996524474,-10.788953836035768,1.185171919307098e-56,0.5994148099951525,-1.475880674505022,-2.3625480511413415e-54,0.07076565707971233,-0.17153211995833004,0,70,255.0,255.0,255.0
199,9.950000000000001,1.1812740255706517e-56,-1.023933828285398,-10.86296233940021,-1.3666800642325797e-55,0.6029335206056412,-1.4844605498574837,-3.5782409735117333e-54,0.06998276733982996,-0.17166289414013464,0,70,255.0,255.0,255.0
200,10.0,0.0,-0.9937,-10.9374,-3.459723781580989e-55,0.6064130867291355,-1.4930469639190354,-4.7939338958820816e-54,0.06919987759994761,-0.1717936683219321,0,70,255.0,255.0,255.0
201,10.05,-2.140060804747117e-56,-0.9632933719594011,-11.012266047936437,-4.72243379135e-55,0.6098415120376375,-1.5015741066400183,-2.5690614319389293e-55,0.06793713474012966,-0.16929204051738292,0,70,255.0,255.0,255.0
202,10.100000000000001,-4.3443481452927085e-56,-0.9327169010819519,-11.087555325974167,-3.716629924774884e-55,0.6132068002031485,-1.509976167970774,4.280121609494296e-54,0.06667439188031171,-0.16679041271283374,0,70,255.0,255.0,255.0
203,10.15,-5.478605083464688e-56,-0.901973744224803,-11.163261580043676,-4.423121818558013e-56,0.6165089512256687,-1.5182531479113017,8.817149362182322e-54,0.0654116490204938,-0.16428878490828466,0,70,255.0,255.0,255.0
204,10.200000000000001,-4.408574681091091e-56,-0.8710670582451018,-11.239378556075458,5.100519437407486e-55,0.6197479651051979,-1.5264050464616024,1.335417711487051e-53,0.06414890616067585,-0.16178715710373548,0,70,255.0,255.0,255.0
205,10.25,0.0,-0.84,-11.3159,1.291186493301458e-54,0.6229238418417362,-1.5344318636216752,1.7891204867558539e-53,0.06288616330085617,-0.15928552929918283,0,70,255.0,255.0,255.0
206,10.3,7.986815654602979e-56,-0.8087751694282954,-11.392820014983142,1.7624362844698326e-54,0.6260699965362578,-1.5423550335125458,9.587867791761749e-55,0.0629600244800077,-0.15764126633564216,0,70,255.0,255.0,255.0
207,10.350000000000001,1.6213328004000008e-55,-0.7773929387953907,-11.470134133132118,1.3870651712190772e-54,0.6292198442897371,-1.5501959902552396,-1.5973631309206189e-53,0.06303388565915924,-0.15599700337210148,0,70,255.0,255.0,255.0
208,10.4,2.0446432526095348e-55,-0.7458531234483393,-11.547838243789526,1.650731535492497e-55,0.6323733851021738,-1.557954733849756,-3.290604939758795e-53,0.06310774683831077,-0.15435274040856084,0,70,255.0,255.0,255.0
209,10.450000000000001,1.6453024698793717e-55,-0.7141555387341909,-11.625928236297959,-1.9035397685397362e-54,0.6355306189735681,-1.5656312642960957,-4.983846748597032e-53,0.06318160801746231,-0.15270847744502017,0,70,255.0,255.0,255.0
210,10.5,0.0,-0.6823,-11.7044,-4.818773595047733e-54,0.63869154590392,-1.5732255815942577,-6.677088557435208e-53,0.06325546919661384,-0.15106421448147778,0,70,255.0,255.0,255.0
211,10.55,-2.9807201813664793e-55,-0.6502867503274148,-11.783249892131007,-6.577501758744331e-54,0.641830501817331,-1.5807657593097983,-3.578240973510815e-54,0.062302767339829035,-0.15054289414014796,0,70,255.0,255.0,255.0
212,10.600000000000001,-6.050896387070731e-55,-0.61811774373648,-11.862476141497364,-5.1765976923988196e-54,0.644921822637903,-1.5882798710082728,5.961440362733045e-53,0.06135006548304422,-0.15002157379881814,0,70,255.0,255.0,255.0
213,10.65,-7.630712502091669e-55,-0.5857953619818387,-11.942077444798215,-6.160613960114176e-55,0.6479655083656355,-1.59576791668968,1.2280704822816946e-52,0.06039736362625944,-0.14950025345748832,0,70,255.0,255.0,255.0
214,10.700000000000001,-6.140352411408378e-55,-0.5533219868181306,-12.022052498732714,7.104107130418193e-54,0.6509615590005289,-1.6032298963540217,1.859996928290107e-52,0.05944466176947463,-0.1489789331161585,0,70,255.0,255.0,255.0
215,10.75,0.0,-0.5207,-12.1024,1.7983907886889475e-53,0.6539099745425829,-1.610665810001296,2.491923374298497e-52,0.058491959912688074,-0.1484576127748216,0,70,255.0,255.0,255.0
216,10.8,1.1124199160005619e-54,-0.4879314292620429,-12.183118016492838,2.454757075050749e-53,0.6568319961944171,-1.6180379292482598,1.335417711486704e-53,0.05838890616067829,-0.14642715710373327,0,70,255.0,255.0,255.0
217,10.850000000000001,2.258225274788292e-54,-0.4550168862586841,-12.264202100878434,1.9319325598376196e-53,0.6597488651586508,-1.6253085257116695,-2.224839832001156e-52,0.0582858524086685,-0.14439670143264494,0,70,255.0,255.0,255.0
218,10.9,2.8478206755757135e-54,-0.4219566286243048,-12.345647177017613,2.2991724304964258e-54,0.662660581435284,-1.6324775993915244,-4.583221435150899e-52,0.058182798656658714,-0.14236624576155668,0,70,255.0,255.0,255.0
219,10.950000000000001,2.2916107175754128e-54,-0.3887509139932826,-12.427448168771196,-2.651288875313305e-53,0.6655671450243167,-1.6395451502878253,-6.941603038300726e-52,0.05807974490464893,-0.14033579009046834,0,70,255.0,255.0,255.0
220,11.0,0.0,-0.3554,-12.5096,-6.711685795251016e-53,0.6684685559257488,-1.6465111784005713,-9.29998464145047e-52,0.05797669115263737,-0.13830533441937654,0,70,255.0,255.0,255.0
221,11.05,-4.1516076458656e-54,-0.3219043326244109,-12.59209804189765,-9.161278124328563e-53,0.6713535134050014,-1.6534025236971803,-4.983846748595752e-53,0.05742160801746045,-0.13734847744498602,0,70,255.0,255.0,255.0
222,11.100000000000001,-8.427811460446098e-54,-0.28826511122877824,-12.674939454988909,-7.2100704701105975e-53,0.674210716727495,-1.66024602614507,8.303215291731319e-52,0.056866524882283526,-0.13639162047059547,0,70,255.0,255.0,255.0
223,11.15,-1.0628211452093689e-53,-0.25448372352094095,-12.758121847131344,-8.580628325974292e-54,0.6770401658932297,-1.66704168574424,1.71048152583219e-51,0.05631144174710662,-0.13543476349620498,0,70,255.0,255.0,255.0
224,11.200000000000001,-8.552407629160817e-54,-0.22056155720873483,-12.84164282618252,9.894744788211396e-53,0.6798418609022056,-1.6737895024946905,2.5906415224912793e-51,0.0557563586119297,-0.13447790652181443,0,70,255.0,255.0,255.0
225,11.25,0.0,-0.1865,-12.9255,2.5048352392315117e-52,0.6826158017544225,-1.6804894763964215,3.4708015191503366e-51,0.055201275476744804,-0.13352104954742572,0,70,255.0,255.0,255.0
226,11.3,1.5494010667461834e-53,-0.1523008402403105,-13.009690615916575,3.419035542226349e-52,0.685337950185578,-1.6871199759630113,1.8599969282896197e-52,0.05368466176947011,-0.13169893311616218,0,70,255.0,255.0,255.0
227,11.350000000000001,3.145302056699609e-53,-0.1179674688261973,-13.094210479165943,2.6908349320604757e-52,0.6879842679313697,-1.693659369708038,-3.098802133492413e-51,0.05216804806219542,-0.12987681668489864,0,70,255.0,255.0,255.0
228,11.4,3.9665025132799037e-53,-0.08350367729192985,-13.17905503445702,3.20233408734007e-53,0.6905547549917974,-1.7001076576315013,-6.38360395981367e-51,0.050651434354920775,-0.1280547002536352,0,70,255.0,255.0,255.0
229,11.450000000000001,3.1918019799067835e-53,-0.04891325717177387,-13.264219726498734,-3.692769027753227e-52,0.6930494113668616,-1.7064648397334012,-9.668405786135043e-51,0.049134820647646085,-0.12623258382237165,0,70,255.0,255.0,255.0
230,11.5,0.0,-0.0142,-13.3497,-9.348172377400945e-52,0.695468237056562,-1.7127309160137385,-1.2953207612456299e-50,0.047618206940371444,-0.12441046739110284,0,70,255.0,255.0,255.0
231,11.55,-5.782443502398174e-53,0.020633293585655844,-13.435491494436052,-1.276001435647254e-51,0.6978706858526876,-1.7189175724507786,-6.94160303829891e-52,0.048479744904650894,-0.12305579009050367,0,70,255.0,255.0,255.0
232,11.600000000000001,-1.1738427080753827e-52,0.05558778653357332,-13.521590628347331,-1.0042332681230845e-51,0.7003162115470272,-1.725036495022789,1.1564887004796517e-50,0.04934128286893034,-0.1217011127899045,0,70,255.0,255.0,255.0
233,11.65,-1.4803188907910246e-52,0.09066563268866187,-13.60799401504058,-1.1951273516762839e-52,0.7028048141395806,-1.731087683729769,2.3823934313422486e-50,0.05020282083320975,-0.12034643548930538,0,70,255.0,255.0,255.0
234,11.700000000000001,-1.1911967156711052e-52,0.12586898589583467,-13.694698267822556,1.3781601632191767e-51,0.7053364936303482,-1.7370711385717197,3.6082981622048896e-50,0.051064358797489204,-0.11899175818870622,0,70,255.0,255.0,255.0
235,11.75,0.0,0.1612,-13.7817,3.4887854270372266e-51,0.7079112500193295,-1.7429868595486397,4.834202893067487e-50,0.05192589676176507,-0.11763708088810354,0,70,255.0,255.0,255.0
236,11.8,2.1580372942846513e-52,0.1966596658976901,-13.868996206339224,4.762102188366382e-51,0.7104593064036718,-1.7488577342338862,2.5906415224906084e-51,0.0499963586119241,-0.11719790652175383,0,70,255.0,255.0,255.0
237,11.850000000000001,4.38084062663157e-52,0.23224432269191,-13.956585407444754,3.747849579286292e-51,0.712910885880522,-1.7547066502008153,-4.316074588569366e-50,0.04806682046208314,-0.11675873215540412,0,70,255.0,255.0,255.0
238,11.9,5.524625311836108e-52,0.2679491465372838,-14.044466505380667,4.460275997971148e-52,0.7152659884498801,-1.7605336074494267,-8.891213329387629e-50,0.04613728231224224,-0.11631955778905442,0,70,255.0,255.0,255.0
239,11.950000000000001,4.445606664693742e-52,0.3037693135884395,-14.132638402211057,-5.143363750101386e-51,0.7175246141117462,-1.7663386059797208,-1.3466352070206055e-49,0.04420774416240128,-0.11588038342270472,0,70,255.0,255.0,255.0
240,12.0,0.0,0.3397,-14.2211,-1.3020324470408813e-50,0.7196867628661202,-1.772121645791697,-1.8041490811024324e-49,0.042278206012558606,-0.11544120905636213,0,70,255.0,255.0,255.0
241,12.05,-8.053904826898788e-52,0.37573764282358685,-14.309849280207057,-1.7772407317818277e-50,0.7218280885326254,-1.7778274906136664,-9.668405786132578e-51,0.043374820647646764,-0.11279258382240545,0,70,255.0,255.0,255.0
242,12.100000000000001,-1.6349519798450898e-51,0.4118837226987928,-14.398880541873675,-1.3987165049022082e-50,0.7240242449308849,-1.7834009041739378,1.6107809653797809e-49,0.04447143528273492,-0.11014395858844878,0,70,255.0,255.0,255.0
243,12.15,-2.0618182356553413e-51,0.4481409811622043,-14.488187163436757,-1.664597664020829e-51,0.7262752320608988,-1.788841886472511,3.3182459886208268e-49,0.045568049917823046,-0.1074953333544922,0,70,255.0,255.0,255.0
244,12.200000000000001,-1.6591229943103877e-51,0.4845121597504117,-14.57776252333323,1.919529483718636e-50,0.7285810499226673,-1.7941504375093869,5.0257110118619334e-49,0.046664664552911204,-0.10484670812053552,0,70,255.0,255.0,255.0
245,12.25,0.0,0.521,-14.6676,4.859251245459803e-50,0.7309416985161901,-1.7993265572845647,6.733176035102981e-49,0.04776127918800199,-0.10219808288657894,0,70,255.0,255.0,255.0
246,12.3,3.0057582013310506e-51,0.5576057628079657,-14.757693872832546,6.6327527082906715e-50,0.7332683394658274,-1.8044243033114469,3.608298162203961e-50,0.04530435879748712,-0.10171175818870956,0,70,255.0,255.0,255.0
247,12.350000000000001,6.101723856717202e-51,0.594324786512925,-14.848042025060566,5.220081061680204e-50,0.7354721343959388,-1.8094977331034356,-6.011516402662189e-49,0.04284743840697225,-0.10122543349084018,0,70,255.0,255.0,255.0
248,12.4,7.694810411437755e-51,0.6311509288139006,-14.938643240872308,6.212363056286184e-51,0.7375530833065245,-1.814546846660531,-1.2383862621544547e-48,0.04039051801645746,-0.10073910879297081,0,70,255.0,255.0,255.0
249,12.450000000000001,6.191931310772178e-51,0.6680780474099184,-15.029496304456037,-7.163781559864411e-50,0.7395111861975846,-1.819571643982733,-1.8756208840427133e-48,0.03793359762594259,-0.10025278409510142,0,70,255.0,255.0,255.0
250,12.5,0.0,0.7051,-15.1206,-1.813497253479833e-49,0.7413464430691188,-1.824572125070041,-2.5128555059309478e-48,0.035476677235434906,-0.09976645939722495,0,70,255.0,255.0,255.0
251,12.55,-1.1217642322634322e-50,0.7422121059445537,-15.21195282846276,-2.4753770101380857e-49,0.7431465536040648,-1.8295312961405394,-1.3466352070202548e-49,0.03652774416240378,-0.09860038342271088,0,70,255.0,255.0,255.0
252,12.600000000000001,-2.2771943447023715e-50,0.7794155312495133,-15.303552157884077,-1.9481607741818603e-49,0.7449992174853592,-1.8344321634123122,2.2435284645268968e-48,0.03757881108937265,-0.0974343074481968,0,70,255.0,255.0,255.0
253,12.65,-2.871742341009567e-50,0.8167129035821951,-15.395395073074011,-2.3184854561123913e-50,0.746904434713002,-1.8392747268853593,4.621720449755735e-48,0.03862987801634149,-0.09626823147368277,0,70,255.0,255.0,255.0
254,12.700000000000001,-2.310860224877831e-50,0.854106850609919,-15.487478658842635,2.6735596755739e-49,0.7488622052869934,-1.8440589865596806,6.999912434984657e-48,0.039680944943310356,-0.09510215549916869,0,70,255.0,255.0,255.0
255,12.75,0.0,0.8916,-15.5798,6.768063889373351e-49,0.750872529207333,-1.8487849424352758,9.378104420213497e-48,0.04073201187027742,-0.09393607952464578,0,70,255.0,255.0,255.0
256,12.8,4.186481108920624e-50,0.9291938134138229,-15.67235561331642,9.238232769723277e-49,0.7528654461179128,-1.8534185121264044,5.025711011860644e-49,0.038984664552913606,-0.09140670812049759,0,70,255.0,255.0,255.0
257,12.850000000000001,8.498604993137768e-50,0.9668850884890278,-15.765139743403141,7.270634990559422e-49,0.7547709956626245,-1.8579256132473259,-8.372962217841368e-48,0.03723731723554979,-0.0888773367163494,0,70,255.0,255.0,255.0
258,12.9,1.0717488322894494e-49,1.0046694568573205,-15.85814606683165,8.652705518820966e-50,0.7565891778414678,-1.8623062457980393,-1.7248495536868486e-47,0.03548996991818604,-0.0863479653122013,0,70,255.0,255.0,255.0
259,12.950000000000001,8.624247768434106e-50,1.04254255015041,-15.95136826017344,-9.977860546309159e-49,0.758319992654443,-1.8665604097785458,-2.6124028855895917e-47,0.03374262260082222,-0.08381859390805312,0,70,255.0,255.0,255.0
260,13.0,0.0,1.0805,-16.0448,-2.5258758304013572e-48,0.7599634401015501,-1.8706881051888444,-3.4999562174923037e-47,0.03199527528345758,-0.0812892225038997,0,70,255.0,255.0,255.0
261,13.05,-1.5624160203419063e-49,1.1185382404001583,-16.13843591827157,-3.447755406875502e-48,0.7615676619242853,-1.8747466553538206,-1.8756208840422307e-48,0.032173597625943455,-0.08105278409514405,0,70,255.0,255.0,255.0
262,13.100000000000001,-3.1717225627848693e-49,1.1566569147943817,-16.232274468503377,-2.713437918805582e-48,0.7631807998641446,-1.878793383598359,3.1248320406838576e-47,0.03235191996842933,-0.0808163456863884,0,70,255.0,255.0,255.0
263,13.15,-3.999821095056841e-49,1.1948564689885246,-16.3263150595994,-3.2292336619171275e-49,0.7648028539211281,-1.8828282899224593,6.437226169771822e-47,0.03253024231091519,-0.08057990727763276,0,70,255.0,255.0,255.0
264,13.200000000000001,-3.218613084885861e-49,1.2331373487884463,-16.420557100463615,3.723788250966275e-48,0.7664338240952361,-1.8868513743261222,9.749620298859903e-47,0.032708564653401065,-0.08034346886887711,0,70,255.0,255.0,255.0
265,13.25,0.0,1.2715,-16.515,9.426696932668093e-48,0.7680737103864682,-1.8908626368093469,1.3062014427947861e-46,0.0328868869958816,-0.08010703046011969,0,70,255.0,255.0,255.0
266,13.3,5.831015970475563e-49,1.309944424985547,-16.60964231359731,1.286719835052968e-47,0.7696959061849479,-1.89481086645833,6.999912434982833e-48,0.03200094494330211,-0.07782215549920576,0,70,255.0,255.0,255.0
267,13.350000000000001,1.18370297518257e-48,1.348468852333452,-16.70447918258337,1.0126688176166386e-47,0.7712738048807984,-1.8986448523592676,-1.1662031940951295e-46,0.031115002890722616,-0.07553728053829183,0,70,255.0,255.0,255.0
268,13.4,1.4927535547937912e-48,1.3870710671885826,-16.79950489477077,1.2051664095786453e-48,0.7728074064740201,-1.9023645945121592,-2.402405512540043e-46,0.030229060838143158,-0.07325240557737799,0,70,255.0,255.0,255.0
269,13.450000000000001,1.2012027562700025e-48,1.4257488546958101,-16.894713737972115,-1.3897366949234177e-47,0.7742967109646128,-1.9059700929170054,-3.638607830985001e-46,0.029343118785563664,-0.07096753061646405,0,70,255.0,255.0,255.0
270,13.5,0.0,1.4645,-16.9901,-3.5180911900271016e-47,0.7757417183525763,-1.9094613475738058,-4.874810149429914e-46,0.028457176732983314,-0.06868265565556264,0,70,255.0,255.0,255.0
271,13.55,-2.1761647861560342e-48,1.503322459657657,-17.0856588273392,-4.802103799524321e-47,0.7771527133359216,-1.912889878812893,-2.612402885588911e-47,0.02798262260082857,-0.0684585939079195,0,70,255.0,255.0,255.0
272,13.600000000000001,-4.417639644451793e-48,1.5422148758718164,-17.18138880116317,-3.779331478585996e-47,0.7785399806126592,-1.9163072069645979,4.352329572312132e-46,0.027508068468673826,-0.06823453216027636,0,70,255.0,255.0,255.0
273,13.65,-5.571032109669481e-48,1.581176062257146,-17.277289361317536,-4.497742272122878e-48,0.779903520182789,-1.9197133320289204,8.965899433182991e-46,0.027033514336519102,-0.06801047041263324,0,70,255.0,255.0,255.0
274,13.700000000000001,-4.4829497165914257e-48,1.6202048324283183,-17.37335994764794,5.186567954597042e-47,0.7812433320463111,-1.9231082540058613,1.3579469294054013e-45,0.02655896020436436,-0.0677864086649901,0,70,255.0,255.0,255.0
275,13.75,0.0,1.6593,-17.4696,1.3129695066841596e-46,0.7825594162032256,-1.9264919728954197,1.8193039154924868e-45,0.02608440607221052,-0.06756234691733809,0,70,255.0,255.0,255.0
276,13.8,8.12155754757658e-48,1.6984601363838276,-17.5660079770459,1.7921695363044313e-46,0.7838372404713658,-1.9298056182900758,9.749620298857361e-47,0.02502856465339976,-0.06498346886890399,0,70,255.0,255.0,255.0
277,13.850000000000001,1.64868556026246e-47,1.7376828441792886,-17.662578412763967,1.4104657096727345e-46,0.7850622726685655,-1.9329903197823102,-1.6243115095153395e-45,0.023972723234589002,-0.06240459082046989,0,70,255.0,255.0,255.0
278,13.9,2.079137488388413e-47,1.7769654837828348,-17.759304859959087,1.6785802678912828e-47,0.7862345127948247,-1.9360460773721229,-3.346119222019192e-45,0.022916881815778282,-0.05982571277203588,0,70,255.0,255.0,255.0
279,13.950000000000001,1.6730596110095687e-47,1.816305415590922,-17.85618087143614,-1.935653512346475e-46,0.7873539608501433,-1.9389728910595136,-5.067926934523105e-45,0.021861040396967523,-0.05724683472360178,0,70,255.0,255.0,255.0
280,14.0,0.0,1.8557,-17.9532,-4.900068907733928e-46,0.7884206168345215,-1.941770760844483,-6.789734647026957e-45,0.02080519897815325,-0.05466795667516422,0,70,255.0,255.0,255.0
281,14.05,-3.031006540415028e-47,1.8951473948070356,-18.05035646447721,-6.688467765265294e-46,0.7894823247786144,-1.9444796480267765,-3.638607830984065e-46,0.021663118785562055,-0.053687530616578966,0,70,255.0,255.0,255.0
282,14.100000000000001,-6.15297827660466e-47,1.9346489474110353,-18.147647147780965,-5.26392969083234e-46,0.7905869287130777,-1.947139513906141,6.062013080830144e-45,0.022521038592970857,-0.05270710455799372,0,70,255.0,255.0,255.0
283,14.15,-7.759446742586703e-47,1.974206802611516,-18.245069598846108,-6.264546844352851e-47,0.7917344286379114,-1.949750358482576,1.2487886944758467e-44,0.02337895840037963,-0.0517266784994085,0,70,255.0,255.0,255.0
284,14.200000000000001,-6.243943472379135e-47,2.013823105207999,-18.342621366607503,7.223957253926198e-46,0.7929248245531156,-1.9523121817560816,1.891376080868702e-44,0.024236878207788432,-0.05074625244082325,0,70,255.0,255.0,255.0
285,14.25,0.0,2.0535,-18.4403,1.8287306124251552e-45,0.7941581164586904,-1.9548249837266585,2.533963467261535e-44,0.02509479801519454,-0.049765826382246914,0,70,255.0,255.0,255.0
286,14.3,1.1311870406902458e-46,2.093238284388033,-18.538102965045262,2.496170152475675e-45,0.7953534604141793,-1.9572837896028372,1.3579469294050524e-45,0.022718960204360494,-0.04858640866489912,0,70,255.0,255.0,255.0
287,14.350000000000001,2.296322754615619e-46,2.1330333661765764,-18.63602739611219,1.9645253053656623e-45,0.7964300124791265,-1.9596836245931486,-2.2623740813805244e-44,0.020343122393526446,-0.04740699094755133,0,70,255.0,255.0,255.0
288,14.4,2.895864948195841e-46,2.172879305771103,-18.734070344656484,2.337960710952009e-46,0.7973877726535319,-1.9620244886975924,-4.660542855701469e-44,0.017967284582692485,-0.04622757323020358,0,70,255.0,255.0,255.0
289,14.450000000000001,2.3302714278506977e-46,2.2127701635770873,-18.832228862133853,-2.696017550335831e-45,0.7982267409373957,-1.9643063819161688,-7.058711630022498e-44,0.015591446771858435,-0.04504815551285579,0,70,255.0,255.0,255.0
290,14.5,0.0,2.2527,-18.9305,-6.824915558927228e-45,0.7989469173307177,-1.9665293042488778,-9.456880404343444e-44,0.01321560896102536,-0.043868737795500934,0,70,255.0,255.0,255.0
291,14.55,-4.221647508719481e-46,2.292664267640836,-19.028880475341744,-9.31583383337617e-45,0.7996318335646675,-1.9686731935618562,-5.067926934521809e-45,0.014181040396968405,-0.04188683472363157,0,70,255.0,255.0,255.0
292,14.600000000000001,-8.56999319080201e-46,2.3326639878826647,-19.127365667770295,-7.331708252379416e-45,0.8003650213704145,-1.9707179877212408,8.443295017439082e-44,0.015146471832911452,-0.0399049316517622,0,70,255.0,255.0,255.0
293,14.65,-1.0807515118524696e-45,2.372701574304074,-19.225950622527975,-8.725388159372776e-46,0.8011464807479586,-1.9726636867270324,1.7393382728330026e-43,0.016111903268854463,-0.0379230285798929,0,70,255.0,255.0,255.0
294,14.700000000000001,-8.696691364164878e-46,2.4127794404836567,-19.3246303848571,1.0061674475950703e-44,0.8019762116972999,-1.9745102905792304,2.634347043922129e-43,0.017077334704797508,-0.03594112550802353,0,70,255.0,255.0,255.0
295,14.75,0.0,2.4529,-19.4234,2.547093162328376e-44,0.8028542142184385,-1.9762577992778347,3.5293558150112232e-43,0.018042766140743183,-0.03395922243615068,0,70,255.0,255.0,255.0
296,14.8,1.5755402994187674e-45,2.4930646450486265,-19.522255133587773,3.4767165181029e-44,0.803719205327152,-1.9779434361497603,1.891376080868214e-44,0.016556878207793325,-0.033466252440868156,0,70,255.0,255.0,255.0
297,14.850000000000001,3.198365000859242e-45,2.533270682292772,-19.62119393280665,2.7362307704152e-44,0.8045099020392179,-1.9796044245219215,-3.1510805988375805e-43,0.015070990274843467,-0.032973282445585624,0,70,255.0,255.0,255.0
298,14.9,4.0334195525902924e-45,2.573514397012604,-19.720215165231636,3.2563591926539034e-45,0.8052263043546363,-1.9812407643943188,-6.491298805761863e-43,0.013585102341893663,-0.03248031245030311,0,70,255.0,255.0,255.0
299,14.950000000000001,3.245649402880882e-45,2.6137920744882917,-19.819317598437756,-3.7550680353467e-44,0.8058684122734072,-1.9828524557669518,-9.831517012686265e-43,0.012099214408943806,-0.031987342455020586,0,70,255.0,255.0,255.0
300,15.0,0.0,2.6541,-19.9185,-9.505881093420781e-44,0.8064362257955306,-1.9844394986398206,-1.3171735219610546e-42,0.010613326475995777,-0.03149437245972564,0,70,255.0,255.0,255.0
301,15.05,-5.879996446803121e-45,2.6944347521646623,-20.017760590307173,-1.2975282689073984e-43,0.8069473451267267,-1.9859690618391326,-7.058711630020655e-44,0.00983144677184632,-0.02968815551274912,0,70,255.0,255.0,255.0
302,15.100000000000001,-1.1936460684356765e-44,2.734794082946254,-20.11709540100313,-1.0211752256422856e-43,0.8074193704727153,-1.9874083141910956,1.1759992893606415e-42,0.009049567067696862,-0.027881938565772604,0,70,255.0,255.0,255.0
303,15.15,-1.5052926698508701e-44,2.7751760376455135,-20.216499916545494,-1.2152897954678316e-44,0.8078523018334964,-1.9887572556957096,2.4225856950214452e-42,0.008267687363547433,-0.026075721618796153,0,70,255.0,255.0,255.0
304,15.200000000000001,-1.2112928475107032e-44,2.8155786615631833,-20.315969621391908,1.401410469379173e-43,0.80824613920907,-1.9900158863529753,3.669172100682293e-42,0.007485807659397975,-0.024269504671819635,0,70,255.0,255.0,255.0
305,15.25,0.0,2.856,-20.4155,3.5476431211354745e-43,0.8086008825994363,-1.9911842061628917,4.9157585063430964e-42,0.006703927955254763,-0.02246328772483963,0,70,255.0,255.0,255.0
306,15.3,2.194444548779372e-44,2.896438746292729,-20.515086505183547,4.842441423819303e-43,0.8089554141659377,-1.992260316493714,2.6343470439214394e-43,0.007477334704806016,-0.02058112550805899,0,70,255.0,255.0,255.0
307,15.350000000000001,4.4547477736567823e-44,2.9368961859222193,-20.61472446318086,3.811077825527621e-43,0.8093486160699169,-1.9932423187136978,-4.3888890975588085e-42,0.00825074145435727,-0.01869896329127835,0,70,255.0,255.0,255.0
308,15.4,5.61782872414445e-44,2.977374252405345,-20.7144091685864,4.535523262605923e-44,0.8097804883113735,-1.9941302128228422,-9.041212899509595e-42,0.009024148203908493,-0.016816801074497775,0,70,255.0,255.0,255.0
309,15.450000000000001,4.520606449754724e-44,3.017874879258981,-20.814135915994633,-5.230135073982024e-43,0.8102510308903078,-1.9949239988211473,-1.3693536701460546e-41,0.009797554953459747,-0.014934638857717135,0,70,255.0,255.0,255.0
310,15.5,0.0,3.0584,-20.9139,-1.323998437519982e-42,0.8107602438067196,-1.9956236767086137,-1.8345860503411334e-41,0.010570961703008308,-0.013052476640929456,0,70,255.0,255.0,255.0
311,15.55,-8.189778550437176e-44,3.098950262664426,-21.013697388958658,-1.8072237426369814e-42,0.8112309982095186,-1.9962696721860118,-9.831517012683743e-43,0.008259214408950622,-0.012787342454988955,0,70,255.0,255.0,255.0
312,15.600000000000001,-1.662534502619145e-43,3.1395211733648747,-21.113526746273454,-1.4223136076468206e-42,0.8115861652476146,-1.9969024109541127,1.6379557100874585e-41,0.005947467114892936,-0.012522208269048455,0,70,255.0,255.0,255.0
313,15.65,-2.0966022226726933e-43,3.1801069527331087,-21.21338740910891,-1.6926803254955996e-43,0.8118257449210079,-1.9975218930129166,3.3742265903016925e-41,0.003635719820835332,-0.012257074083107965,0,70,255.0,255.0,255.0
314,15.700000000000001,-1.6871132951508202e-43,3.2207018214008962,-21.313278714629586,1.951912982654891e-42,0.8119497372296982,-1.9981281183624233,5.110497470515988e-41,0.0013239725267776455,-0.011991939897167464,0,70,255.0,255.0,255.0
315,15.75,0.0,3.2613,-21.4132,4.9412294379663805e-42,0.8119581421736856,-1.9987210870026333,6.846768350730224e-41,-0.0009877747672826231,-0.011726805711219868,0,70,255.0,255.0,255.0
316,15.8,3.056466965296933e-43,3.3018970030495702,-21.513149538981843,6.744650828165996e-42,0.8119285929959885,-1.9992369947622102,3.669172100681345e-42,-0.00019419234059813145,-0.00890950467185259,0,70,255.0,255.0,255.0
317,15.850000000000001,6.2046632331109026e-43,3.3424935206182886,-21.613121351725358,5.3081466480345216e-42,0.8119387229396258,-1.9996120374698185,-6.112933930593955e-41,0.0005993900860863603,-0.006092203632485313,0,70,255.0,255.0,255.0
318,15.9,7.824626018276329e-43,3.383091536662221,-21.713108394977954,6.317168975721779e-43,0.8119885320045972,-1.9998462151254586,-1.2592785071255814e-40,0.0013929725127708238,-0.003274902593118136,0,70,255.0,255.0,255.0
319,15.950000000000001,6.2963925356278085e-43,3.423693035137437,-21.813103625487035,-7.28463842322136e-42,0.8120780201909028,-1.9999395277291305,-1.90726362119179e-40,0.0021865549394553155,-0.0004576015537508596,0,70,255.0,255.0,255.0
320,16.0,0.0,3.4643,-21.9131,-1.844091931434554e-41,0.8122071874985426,-1.9998919752808337,-2.555248735257975e-40,0.002980137366138891,0.002359699485616318,0,70,255.0,255.0,255.0
321,16.05,-1.1406890006144011e-42,3.5049137251372966,-22.013091655113996,-2.5171379570026993e-41,0.8123346298065324,-1.9997743487651374,-1.3693536701456963e-41,0.0021175549534522154,0.0023453611422439733,0,70,255.0,255.0,255.0
322,16.1,-2.3156118429824454e-42,3.545532744161977,-22.113077446825137,-1.9810272984491257e-41,0.8124189429938878,-1.9996574391666093,2.2813780012288357e-40,0.0012549725407655398,0.002331022798871629,0,70,255.0,255.0,255.0
323,16.150000000000002,-2.920190185043266e-42,3.58615490061801,-22.213057410979278,-2.357599557738315e-42,0.812460127060609,-1.99954124648525,4.6996913694722406e-40,0.0003923901280788642,0.0023166844554992844,0,70,255.0,255.0,255.0
324,16.2,-2.3498456847360878e-42,3.6267780380493595,-22.313031583422276,2.7186640710229286e-41,0.8124581820066956,-1.9994257707210594,7.118004737715473e-40,-0.00047019228460775005,0.002302346112126941,0,70,255.0,255.0,255.0
325,16.25,0.0,3.6674,-22.413,6.882244781941577e-41,0.8124131078321483,-1.9993110118740374,9.536318105958878e-40,-0.0013327746972953136,0.0022880077687617018,0,70,255.0,255.0,255.0
326,16.3,4.257109305927911e-42,3.708018496401247,-22.512961440562187,9.3940867451942e-41,0.812316887777885,-1.9991216101772467,5.110497470514663e-41,-0.002516027473232735,0.005288060102866197,0,70,255.0,255.0,255.0
327,16.35,8.641981048618692e-42,3.74863070273381,-22.612909660974115,7.393294528993048e-41,0.812161505084825,-1.9987822058637505,-8.514218611855946e-40,-0.0036992802491701564,0.008288112436970693,0,70,255.0,255.0,255.0
328,16.400000000000002,1.089829813834543e-41,3.789233660865751,-22.712837161104954,8.798681333381283e-42,0.811946959752968,-1.9982927989335497,-1.753948697076336e-39,-0.004882533025107577,0.011288164771075188,0,70,255.0,255.0,255.0
329,16.45,8.769743485381557e-42,3.829824412665125,-22.81273644082385,-1.0146192441769614e-40,0.8116732517823143,-1.9976533893866433,-2.656475532967013e-39,-0.006065785801044915,0.01428821710517947,0,70,255.0,255.0,255.0
330,16.5,0.0,3.8704,-22.9126,-2.5684887196331754e-40,0.8113403811728636,-1.9968639772230319,-3.5590023688577544e-39,-0.007249038576985889,0.01728826943928574,0,70,255.0,255.0,255.0
331,16.55,-1.5887748223097247e-41,3.9109578892577215,-23.01242178263727,-3.505920902377409e-40,0.8109738190819256,-1.996011210525893,-1.9072636211912967e-40,-0.007413445060532989,0.016822398446277368,0,70,255.0,255.0,255.0
332,16.6,-3.2252312351492326e-41,3.951497244902791,-23.11220150927842,-2.7592150817523074e-40,0.8105990366668102,-1.9951817373784042,3.177549644619495e-39,-0.0075778515440800874,0.016356527453268998,0,70,255.0,255.0,255.0
333,16.650000000000002,-4.067300236833845e-41,3.9920176559190006,-23.21194034460094,-3.283712577578689e-41,0.8102160339275175,-1.994375557780566,6.54582565135812e-39,-0.007742258027627187,0.015890656460260624,0,70,255.0,255.0,255.0
334,16.7,-3.2729128256790143e-41,4.0325187112901375,-23.3116394532823,3.786610569605556e-40,0.8098248108640476,-1.993592671732378,9.914101658096507e-39,-0.007906664511174276,0.015424785467252284,0,70,255.0,255.0,255.0
335,16.75,0.0,4.073,-23.4113,9.585730400338544e-40,0.8094253674764001,-1.992833079233841,1.3282377664835128e-38,-0.008071070994721374,0.01495891447423503,0,70,255.0,255.0,255.0
336,16.8,5.929388358646107e-41,4.113461146567873,-23.51092182888875,1.3084274934990217e-39,0.8090198358944167,-1.992017547719181,7.1180047377137026e-40,-0.008150192284614556,0.017662346112159395,0,70,255.0,255.0,255.0
337,16.85,1.203672683573506e-40,4.153901917655036,-23.610499501912226,1.0297530874109923e-39,0.8086103482479386,-1.991066844622625,-1.1858776717292388e-38,-0.008229313574507737,0.020365777750083757,0,70,255.0,255.0,255.0
338,16.900000000000002,1.5179371133500837e-40,4.19432211545826,-23.71002626049132,1.2254982176976611e-40,0.8081969045369659,-1.9899809699441726,-2.4429353908356143e-38,-0.008308434864400919,0.02306920938800812,0,70,255.0,255.0,255.0
339,16.95,1.22146769541779e-40,4.234721542174321,-23.80949534604694,-1.4131823034245256e-39,0.8077795047614986,-1.9887599236838243,-3.6999931099419006e-38,-0.008387556154294094,0.02577264102593229,0,70,255.0,255.0,255.0
340,17.0,0.0,4.2751,-23.9089,-3.5774432881721e-39,0.8073581489215367,-1.9874037058415792,-4.957050829048277e-38,-0.008466677444186388,0.028476072663861984,0,70,255.0,255.0,255.0
341,17.05,-2.21287786122747e-40,4.31545672447079,-24.008234101807734,-4.883117883758346e-39,0.8068988373404059,-1.9859505985973558,-2.6564755329663585e-39,-0.009905785801046127,0.029648217105078006,0,70,255.0,255.0,255.0
342,17.1,-4.492167610779101e-40,4.355788684477078,-24.107494083072705,-3.8430908414687396e-39,0.806367570341432,-1.9844388841310714,4.425755722455005e-38,-0.011344894157905868,0.03082036154629403,0,70,255.0,255.0,255.0
343,17.150000000000002,-5.6650184297169496e-40,4.396092282247971,-24.206677013433808,-4.573621613032774e-40,0.8057643479246153,-1.9828685624427262,9.117158998206645e-38,-0.012784002514765608,0.03199250598751005,0,70,255.0,255.0,255.0
344,17.2,-4.558579499103261e-40,4.436363920012574,-24.30577996252994,5.274068156737544e-39,0.8050891700899555,-1.9812396335323204,1.3808562273957953e-37,-0.014223110871625245,0.03316465042872599,0,70,255.0,255.0,255.0
345,17.25,0.0,4.4766,-24.4048,1.3351200112654546e-38,0.8043420368374526,-1.979552097399854,1.8499965549709588e-37,-0.015662219228485874,0.03433679486994734,0,70,255.0,255.0,255.0
346,17.3,8.258572609045271e-40,4.51679755554897,-24.50373456388033,1.822404404153436e-38,0.8035608147439611,-1.9778280578914216,9.914101658094035e-39,-0.01558666451117343,0.03462478546734147,0,70,255.0,255.0,255.0
347,17.35,1.67649977595429e-39,4.556956144436662,-24.60258256579698,1.4342610278463963e-38,0.8027833703863353,-1.9760896188531198,-1.651714521809078e-37,-0.015511109793860986,0.034912776064735605,0,70,255.0,255.0,255.0
348,17.400000000000002,2.114213660551771e-39,4.597075955549869,-24.701343285773476,1.706898823443341e-39,0.802009703764575,-1.974336780284948,-3.4025700601990963e-37,-0.015435555076548544,0.035200766662129734,0,70,255.0,255.0,255.0
349,17.45,1.7012850300995253e-39,4.637157177775382,-24.800016003833306,-1.968309032352566e-38,0.8012398148786806,-1.972569542186907,-5.153425598588991e-37,-0.015360000359236105,0.03548875725952385,0,70,255.0,255.0,255.0
350,17.5,0.0,4.6772,-24.8986,-4.982735716244608e-38,0.8004737037286515,-1.970787904558996,-6.904281136979009e-37,-0.015284445641927213,0.03577674785691265,0,70,255.0,255.0,255.0
351,17.55,-3.082141257495361e-39,4.7172042533333345,-24.997093242670978,-6.801305828237911e-38,0.7996899036837459,-1.9689131698369255,-3.6999931099409934e-38,-0.016067556154293616,0.03921264102590212,0,70,255.0,255.0,255.0
352,17.6,-6.25678234273925e-39,4.757168337776282,-25.095488453739385,-5.352735027238714e-38,0.798866948113222,-1.9668666404564057,6.16428251499081e-37,-0.01685066666666002,0.04264853419489159,0,70,255.0,255.0,255.0
353,17.650000000000002,-7.890352799235392e-39,4.7970902955525645,-25.193777043472313,-6.370233132470134e-39,0.7980048370170799,-1.9646483164174364,1.269856434097572e-36,-0.017633777179026422,0.04608442736388107,0,70,255.0,255.0,255.0
354,17.7,-6.349282170487773e-39,4.836968168885894,-25.291950422136818,7.345829313736503e-38,0.7971035703953194,-1.9622581977200177,1.9232846166960163e-36,-0.01841688769139277,0.049520320532870296,0,70,255.0,255.0,255.0
355,17.75,0.0,4.8768,-25.39,1.8595822853712978e-37,0.7961631482479405,-1.9596962843641497,2.5767127992945075e-36,-0.01919999820376006,0.052956213701850885,0,70,255.0,255.0,255.0
356,17.8,1.1502707769076917e-38,4.916583831117698,-25.487918865435777,2.5382818908798205e-37,0.7951835705210558,-1.9570632627608862,1.3808562273954551e-37,-0.019983110871628906,0.052364650428680895,0,70,255.0,255.0,255.0
357,17.85,2.3350629595002706e-38,4.956317704458217,-25.585706819245488,1.9976679081108447e-37,0.7941648371607776,-1.9544598193212814,-2.3005415538154165e-36,-0.020766223539497752,0.051773087155510905,0,70,255.0,255.0,255.0
358,17.900000000000002,2.9447197536389787e-38,4.995999662239887,-25.683365340337307,2.3774033706437066e-38,0.793106948167106,-1.951885954045335,-4.739168730370379e-36,-0.0215493362073666,0.051181523882340915,0,70,255.0,255.0,255.0
359,17.95,2.369584365185157e-38,5.035627746681036,-25.78089590761941,-2.741500822259346e-37,0.792009903540041,-1.9493416669330477,-7.177795906925166e-36,-0.02233244887523539,0.05058996060917097,0,70,255.0,255.0,255.0
360,18.0,0.0,5.0752,-25.8783,-6.94005556986073e-37,0.7908737032795825,-1.9468269579844182,-9.616423083480129e-36,-0.023115561543104235,0.04999839733599387,0,70,255.0,255.0,255.0
361,18.05,-4.29286898188123e-38,5.114714822195877,-25.975577695585915,-9.472996980695492e-37,0.789719814232024,-1.944257779119528,-5.153425598587723e-37,-0.0230400003592365,0.05276875725961578,0,70,255.0,255.0,255.0
362,18.1,-8.714573603727156e-38,5.154172044390857,-26.072723469278685,-7.455398129719509e-37,0.7885697032436588,-1.9415500822584564,8.585737963762584e-36,-0.022964439175368764,0.05553911718323769,0,70,255.0,255.0,255.0
363,18.150000000000002,-1.0989843734632378e-37,5.193571855487897,-26.169730395178494,-8.872590169327846e-38,0.7874233703144871,-1.938703867401204,1.7686818487383944e-35,-0.02288887799150103,0.05830947710685959,0,70,255.0,255.0,255.0
364,18.2,-8.843409243691852e-38,5.232914444389957,-26.266591547385534,1.0231420357663734e-36,0.7862808154445088,-1.9357191345477707,2.678789901100465e-35,-0.0228133168076333,0.0610798370304813,0,70,255.0,255.0,255.0
365,18.25,0.0,5.2722,-26.3633,2.5900639994071623e-36,0.7851420386337239,-1.9325958836981563,3.5888979534626015e-35,-0.022737755623764677,0.06385019695409433,0,70,255.0,255.0,255.0
366,18.3,1.6021205150617233e-37,5.311428080098796,-26.459849552220557,3.535370603190215e-36,0.7839691725508452,-1.9293776207609847,1.9232846166955436e-36,-0.024176887691380444,0.06488032053276066,0,70,255.0,255.0,255.0
367,18.35,3.2523231455408367e-37,5.350595717978362,-26.556236903639785,2.7823924610767195e-36,0.7827243498645858,-1.92610785164488,-3.204241030123493e-35,-0.025616019758996206,0.06591044411142699,0,70,255.0,255.0,255.0
368,18.400000000000002,4.101465518489053e-37,5.3896993158085325,-26.65245947894873,3.3112957306667537e-37,0.7814075705749456,-1.9227865763498422,-6.60081052191654e-35,-0.027055151826611973,0.06694056769009334,0,70,255.0,255.0,255.0
369,18.45,3.300405260958225e-37,5.4287352757591325,-26.74851470283845,-3.818418060839557e-36,0.7800188346819247,-1.919413794875871,-9.997380013709346e-35,-0.028494283894227635,0.0679706912687596,0,70,255.0,255.0,255.0
370,18.5,0.0,5.4677,-26.8444,-9.666250440642577e-36,0.7785581421855229,-1.9159895072229662,-1.339394950550239e-34,-0.0299334159618434,0.06900081484742593,0,70,255.0,255.0,255.0
371,18.55,-5.979195162058769e-37,5.506590457408944,-26.940112895531858,-1.319418271469131e-35,0.7770594955645959,-1.9125197378365506,-7.177795906923394e-36,-0.030012448875234733,0.06978996060919337,0,70,255.0,255.0,255.0
372,18.6,-1.2137835221790629e-36,5.545405883695699,-27.035651316162188,-1.0384030031334926e-35,0.7755568972979994,-1.9090105111620468,1.1958390324117712e-34,-0.030091481788626064,0.0705791063709608,0,70,255.0,255.0,255.0
373,18.650000000000002,-1.530687770049298e-36,5.584146081277983,-27.131013289026598,-1.2357923905734207e-36,0.7740503473857332,-1.9054618271994546,2.4634560238927765e-34,-0.030170514702017395,0.07136825213272825,0,70,255.0,255.0,255.0
374,18.7,-1.2317280119463715e-36,5.622810852573511,-27.226196841260663,1.4250530207591869e-35,0.7725398458277978,-1.9018736859487742,3.7310730153736916e-34,-0.030249547615408722,0.07215739789449563,0,70,255.0,255.0,255.0
375,18.75,0.0,5.6614,-27.3212,3.607493776316314e-35,0.7710253926241925,-1.8982460874100053,4.998690006854697e-34,-0.03032858052880183,0.07294654365625419,0,70,255.0,255.0,255.0
376,18.8,2.2314660133173352e-36,5.6999132902654335,-27.41602046565203,4.924136025557503e-35,0.7695048451907811,-1.8945594278928344,2.678789901099812e-35,-0.030493316807649332,0.07451983703057936,0,70,255.0,255.0,255.0
377,18.85,4.5299017741621676e-36,5.738350347238848,-27.510654631711475,3.875372766426298e-35,0.7679760609434275,-1.8907941037069471,-4.462932026634735e-34,-0.03065805308649683,0.07609313040490454,0,70,255.0,255.0,255.0
378,18.900000000000002,5.712604528348286e-36,5.776710759079545,-27.60509856494491,4.6120399892270314e-36,0.7664390398821315,-1.8869501148523438,-9.193743043379452e-34,-0.030822789365344334,0.07766642377922969,0,70,255.0,255.0,255.0
379,18.95,4.5968715216896633e-36,5.814994113946827,-27.699348332118895,-5.318370276952789e-35,0.7648937820068931,-1.8830274613290245,-1.3924554060123832e-33,-0.030987525644191823,0.07923971715355475,0,70,255.0,255.0,255.0
380,19.0,0.0,5.8532,-27.7934,-1.3463350061200999e-34,0.7633402873177122,-1.8790261431369888,-1.8655365076868542e-33,-0.031152261923040214,0.08081301052787104,0,70,255.0,255.0,255.0
381,19.05,-8.327944537063464e-36,5.891327581529328,-27.887249241860047,-1.8377125830760876e-34,0.7617531236722803,-1.8749225505920755,-9.997380013706846e-35,-0.03233428389423525,0.08333069126865493,0,70,255.0,255.0,255.0
382,19.1,-1.690582357446961e-35,5.929374327348921,-27.980890156991926,-1.4463088062571695e-34,0.7601068589282886,-1.8706930740101233,1.6655889074127173e-33,-0.03351630586543027,0.0858483720094388,0,70,255.0,255.0,255.0
383,19.150000000000002,-2.1319730343343838e-35,5.967337282403848,-28.074316451193777,-1.7212367566334705e-35,0.7584014930857372,-1.8663377133911316,3.431151614962503e-33,-0.034698327836625305,0.08836605275022269,0,70,255.0,255.0,255.0
384,19.200000000000003,-1.7155758074811565e-35,6.005213491639185,-28.167521830263755,1.984842808705382e-34,0.756637026144626,-1.8618564687351007,5.196714322512289e-33,-0.03588034980782033,0.09088373349100656,0,70,255.0,255.0,255.0
385,19.25,0.0,6.043,-28.2605,5.024590646848768e-34,0.7548134581049553,-1.8572493400420311,6.962277030061947e-33,-0.0370623717790135,0.09340141423179027,0,70,255.0,255.0,255.0
386,19.3,3.108031213493652e-35,6.080693983617259,-28.353245766907786,6.858436729748599e-34,0.7529386601200951,-1.8525823697388752,3.7310730153727615e-34,-0.037929547615390656,0.09327739789444357,0,70,255.0,255.0,255.0
387,19.35,6.309339252371626e-35,6.11829314336548,-28.44575834032084,5.397697948386048e-34,0.7510205033434161,-1.8479216002525867,-6.216062426987395e-33,-0.038796723451767816,0.09315338155709689,0,70,255.0,255.0,255.0
388,19.400000000000002,7.956631684502708e-35,6.155795311305072,-28.538038030279996,6.423743027611155e-35,0.7490589877749183,-1.8432670315831654,-1.2805232155512066e-32,-0.03966389928814497,0.09302936521975019,0,70,255.0,255.0,255.0
389,19.450000000000003,6.40261607775568e-35,6.193198319496443,-28.630085146826104,-7.407534207126198e-34,0.7470541134146016,-1.8386186637306114,-1.9394401884036737e-32,-0.04053107512452213,0.09290534888240351,0,70,255.0,255.0,255.0
390,19.5,0.0,6.2305,-28.7219,-1.875202758127497e-33,0.7450058802624662,-1.8339764966949252,-2.5983571612560935e-32,-0.04139825096089744,0.09278133254505327,0,70,255.0,255.0,255.0
391,19.55,-1.1599330400268261e-34,6.267698884001638,-28.813482090508813,-2.5596034335918313e-33,0.7429562358473386,-1.829291970452456,-1.3924554060120402e-33,-0.04058752564420408,0.09459971715371761,0,70,255.0,255.0,255.0
392,19.6,-2.354677465203954e-34,6.3047962991891655,-28.90482768172474,-2.014448298728703e-33,0.7409471276980457,-1.8245165249795532,2.3198660800536855e-32,-0.03977680032751072,0.09641810176238193,0,70,255.0,255.0,255.0
393,19.650000000000002,-2.9694553703676444e-34,6.341794272375874,-28.995932227686264,-2.3973735353811185e-34,0.7389785558145875,-1.8196501602762176,4.778977700708575e-32,-0.03896607501081736,0.09823648637104626,0,70,255.0,255.0,255.0
394,19.700000000000003,-2.3894888503541554e-34,6.378694830375056,-29.08679118243186,2.7645294019799412e-33,0.7370505201969639,-1.8146928763424486,7.238089321363464e-32,-0.03815534969412399,0.1000548709797106,0,70,255.0,255.0,255.0
395,19.75,0.0,6.4155,-29.1774,6.998351967825111e-33,0.7351630208451753,-1.8096446731782465,9.697200942018182e-32,-0.03734462437743158,0.10187325558838012,0,70,255.0,255.0,255.0
396,19.8,4.328929038757939e-34,6.452210480376191,-29.267753871056968,9.552570061392465e-33,0.7332363964905442,-1.804489748451264,5.196714322510904e-33,-0.03972034980781188,0.1043237334909087,0,70,255.0,255.0,255.0
397,19.85,8.787775935578654e-34,6.488821659877864,-29.35784693278021,7.51802340007621e-33,0.731190985864394,-1.7992122998291555,-8.657858077516001e-32,-0.042096075238192185,0.10677421139343728,0,70,255.0,255.0,255.0
398,19.900000000000002,1.1082158313020307e-33,6.5253275991914395,-29.447673058974967,8.947119838763377e-34,0.7290267889667249,-1.7938123273119204,-1.7835387587283094e-31,-0.044471800668572495,0.10922468929596586,0,70,255.0,255.0,255.0
399,19.950000000000003,8.917693793641056e-34,6.561722359003345,-29.53722612344648,-1.031736418720714e-32,0.7267438057975367,-1.7882898308995587,-2.7012917097050183e-31,-0.0468475260989528,0.11167516719849445,0,70,255.0,255.0,255.0
400,20.0,0.0,6.598,-29.6265,-2.611820511317295e-32,0.7243420363568297,-1.7826448105920711,-3.6190446606816633e-31,-0.04922325152933471,0.11412564510102285,0,70,255.0,255.0,255.0
401,20.05,-1.615578311500493e-33,6.634155994493599,-29.71548962526332,-3.5650676811978024e-32,0.7219061781904833,-1.7769410357424866,-1.9394401884031532e-32,-0.04821107512452104,0.1140253488823518,0,70,255.0,255.0,255.0
402,20.1,-3.279642627711066e-33,6.670191461299386,-29.804194187154433,-2.805764530157612e-32,0.7195209288443775,-1.7712422757038357,3.2311566230010327e-31,-0.047198898719707366,0.11392505266368076,0,70,255.0,255.0,255.0
403,20.150000000000002,-4.13591778817136e-33,6.706108930858375,-29.892613936413888,-3.339110581967239e-33,0.7171862883185124,-1.7655485304761185,6.656257264842382e-31,-0.046186722314893694,0.11382475644500971,0,70,255.0,255.0,255.0
404,20.200000000000003,-3.328128632421007e-33,6.741910933611577,-29.98074912378223,3.850492734684863e-32,0.7149022566128881,-1.7598598000593346,1.0081357906683729e-30,-0.04517454591008002,0.11372446022633866,0,70,255.0,255.0,255.0
405,20.25,0.0,6.7776,-30.0686,9.747446848486669e-32,0.7126688337275044,-1.7541760844534848,1.3506458548524834e-30,-0.04416236950527086,0.11362416400766406,0,70,255.0,255.0,255.0
406,20.3,6.029420342126179e-33,6.813177541649416,-30.15616602788976,1.3305013718651967e-31,0.7104188907475195,-1.748450108578798,7.238089321361502e-32,-0.04583534969412393,0.11541487097981291,0,70,255.0,255.0,255.0
407,20.35,1.2239792917286401e-32,6.848640494924595,-30.24344351860207,1.0471255780622832e-31,0.708085298758092,-1.7426345973555033,-1.2058840684252534e-30,-0.047508329882977,0.11720557795196176,0,70,255.0,255.0,255.0
408,20.400000000000002,1.5435455321383405e-32,6.883984677375069,-30.3304279953695,1.2461730343992619e-32,0.7056680577592217,-1.7367295507836016,-2.484149030064121e-30,-0.04918131007183007,0.11899628492411062,0,70,255.0,255.0,255.0
409,20.450000000000003,1.2420745150319918e-32,6.919205906550361,-30.41711498142462,-1.4370234520018743e-31,0.7031671677509088,-1.7307349688630922,-3.76241399170299e-30,-0.05085429026068314,0.12078699189625947,0,70,255.0,255.0,255.0
410,20.5,0.0,6.9543,-30.5035,-3.637796688262938e-31,0.7005826287331535,-1.7246508515939758,-5.040678953341767e-30,-0.05252727044954231,0.1225776988684224,0,70,255.0,255.0,255.0
411,20.55,-2.250210305700422e-32,6.9892634389087425,-30.589578263177643,-4.9654987193410055e-31,0.697954258819441,-1.7184585299423052,-2.701291709704286e-31,-0.05260752609895807,0.1251151671984012,0,70,255.0,255.0,255.0
412,20.6,-4.5679529041434525e-32,7.024095359002238,-30.675343738437288,-3.9079258592333705e-31,0.6953218761232576,-1.7121393348741354,4.50042061140091e-30,-0.05268778174837383,0.12765263552838,0,70,255.0,255.0,255.0
413,20.650000000000002,-5.760590349736224e-32,7.058795559641361,-30.760790082108116,-4.650781079400327e-32,0.6926854806446036,-1.705693266389467,9.270970393772248e-30,-0.0527680373977896,0.1301901038583588,0,70,255.0,255.0,255.0
414,20.700000000000003,-4.635485196885868e-32,7.09336384018699,-30.845910950519297,5.36304453453901e-31,0.6900450723834785,-1.6991203244882993,1.4041520176143588e-29,-0.052848293047205355,0.1327275721883376,0,70,255.0,255.0,255.0
415,20.75,0.0,7.1278,-30.9307,1.3576442068203085e-30,0.6874006513398829,-1.6924205091706332,1.8812069958514588e-29,-0.05292854869662733,0.13526504051832866,0,70,255.0,255.0,255.0
416,20.8,8.397899188589071e-32,7.162103902715617,-31.015152119399673,1.853149350549883e-30,0.684756073974715,-1.6856677716520143,1.0081357906681026e-30,-0.05285454591008225,0.13484446022642552,0,70,255.0,255.0,255.0
417,20.85,1.7047832324845175e-31,7.196275669066461,-31.099267127648783,1.4584577858871197e-30,0.6821151967488747,-1.6789360631479904,-1.6795798377178383e-29,-0.052780543123537166,0.13442387993452234,0,70,255.0,255.0,255.0
418,20.900000000000002,2.1498815866806564e-31,7.230315484059496,-31.183046076198053,1.7356951283201997e-31,0.6794780196623613,-1.6722253836585619,-3.459973254502487e-29,-0.05270654033699209,0.1340032996426192,0,70,255.0,255.0,255.0
419,20.950000000000003,1.7299866272511496e-31,7.264223532701687,-31.266490016498217,-2.001515468615417e-30,0.6768445427151754,-1.6655357331837284,-5.240366671287136e-29,-0.05263253755044701,0.13358271935071603,0,70,255.0,255.0,255.0
420,21.0,0.0,7.298,-31.3496,-5.06679715845494e-30,0.6742147659073168,-1.6588671117234903,-7.020760088071655e-29,-0.052558534763900155,0.13316213905882535,0,70,255.0,255.0,255.0
421,21.05,-3.1341386448655863e-31,7.3316441502287875,-31.432375659223666,-6.91604753026543e-30,0.6715334452817023,-1.6521343834496138,-3.7624139917019636e-30,-0.05469429026067519,0.13614699189623072,0,70,255.0,255.0,255.0
422,21.1,-6.362337639523725e-31,7.365151564731924,-31.514810950967597,-5.443038557625142e-30,0.6687453368812492,-1.6452524125338672,6.268277289731263e-29,-0.05683004575745022,0.13913184473363607,0,70,255.0,255.0,255.0
423,21.150000000000002,-8.023467311749001e-31,7.398516904120666,-31.59689841309969,-6.477702405340756e-31,0.6658504407059572,-1.63822119897625,1.2912795978632721e-28,-0.058965801254225264,0.14211669757104145,0,70,255.0,255.0,255.0
424,21.200000000000003,-6.456397989316007e-31,7.431734829006273,-31.67863058348786,7.469757421007764e-30,0.6628487567558266,-1.6310407427767628,1.955731466753418e-28,-0.0611015567510003,0.14510155040844683,0,70,255.0,255.0,255.0
425,21.25,0.0,7.4648,-31.76,1.890954442699945e-29,0.6597402850308572,-1.6237110439354057,2.6201833356435164e-28,-0.06323731224777784,0.14808640324585554,0,70,255.0,255.0,255.0
426,21.3,1.1696764660603435e-30,7.497708296369234,-31.841000443705656,2.581104077051183e-29,0.6565981448984818,-1.61630669454955,1.4041520176139777e-29,-0.062448293047238035,0.14808757218837484,0,70,255.0,255.0,255.0
427,21.35,2.374456732561038e-30,7.53046047200585,-31.92163066848084,2.0313696444613445e-29,0.6534954557261333,-1.608902286716568,-2.339352932120721e-28,-0.061659273846698226,0.14808874113089415,0,70,255.0,255.0,255.0
428,21.400000000000002,2.9943987660315352e-30,7.563058499457849,-32.001890671403196,2.417511449304292e-30,0.650432217513812,-1.6014978204364603,-4.819121066002839e-28,-0.06087025464615842,0.1480899100734135,0,70,255.0,255.0,255.0
429,21.450000000000003,2.409560533001287e-30,7.595504351273233,-32.081780449550365,-2.787751421541564e-29,0.6474084302615174,-1.5940932957092264,-7.298889199884958e-28,-0.06008123544561861,0.1480910790159328,0,70,255.0,255.0,255.0
430,21.5,0.0,7.6278,-32.1613,-7.057138054954286e-29,0.64442409396925,-1.5866887125348674,-9.7786573337669e-28,-0.05929221624508152,0.14809224795845388,0,70,255.0,255.0,255.0
431,21.55,-4.3652919997548155e-30,7.659946664294279,-32.24044816595371,-9.63281155517819e-29,0.6414339751243623,-1.5792148383521372,-5.240366671285714e-29,-0.06031253755042842,0.15086271935075116,0,70,255.0,255.0,255.0
432,21.6,-8.861593166291777e-30,7.6919425472446825,-32.319219175109055,-7.581174722082865e-29,0.6383928402142071,-1.5716024405997921,8.730583999509758e-28,-0.061332858855775316,0.1536331907430484,0,70,255.0,255.0,255.0
433,21.650000000000002,-1.117524833295124e-29,7.723785098047946,-32.39760610128753,-9.022275556683107e-30,0.6353006892387847,-1.5638515192778322,1.7985204666148086e-27,-0.062353180161122214,0.15640366213534568,0,70,255.0,255.0,255.0
434,21.700000000000003,-8.99260233307355e-30,7.755471765900807,-32.47560201831068,1.0404029944065476e-28,0.6321575221980947,-1.5559620743862574,2.7239825332786417e-27,-0.06337350146646911,0.15917413352764292,0,70,255.0,255.0,255.0
435,21.75,0.0,7.787,-32.5532,2.6337597777117195e-28,0.6289633390921379,-1.5479341059250684,3.6494445999424074e-27,-0.06439382277181771,0.16194460491993823,0,70,255.0,255.0,255.0
436,21.8,1.629149153295892e-29,7.818367446453651,-32.630394092479484,3.5950142143661567e-28,0.6257299546040676,-1.5398259520418631,1.9557314667528844e-28,-0.06494155675099302,0.16238155040827137,0,70,255.0,255.0,255.0
437,21.85,3.307191593260607e-29,7.8495725390154245,-32.707182231082946,2.8293329243870105e-28,0.6224691834170385,-1.531695950884241,-3.2582983065918305e-27,-0.0654892907301683,0.16281849589660455,0,70,255.0,255.0,255.0
438,21.900000000000002,4.1706594565773404e-29,7.880613908350374,-32.783563323446664,3.3671590777427844e-29,0.6191810255310507,-1.5235441024522023,-6.71216975985895e-27,-0.06603702470934361,0.1632554413849377,0,70,255.0,255.0,255.0
439,21.950000000000003,3.3560848799292906e-29,7.911490185123548,-32.85953627720692,-3.8828368354720357e-28,0.6158654809461039,-1.5153704067457472,-1.0166041213126068e-26,-0.0665847586885189,0.16369238687327087,0,70,255.0,255.0,255.0
440,22.0,0.0,7.9422,-32.9351,-9.82932530535145e-28,0.6125225496621988,-1.5071748637648756,-1.3619912666392947e-26,-0.06713249266769328,0.1641293323616111,0,70,255.0,255.0,255.0
441,22.05,-6.080067413208086e-29,7.972741949891118,-33.01025306412835,-1.3416775701946811e-27,0.6091502064593655,-1.4989373534804344,-7.298889199883004e-28,-0.06776123544563523,0.1653710790160318,0,70,255.0,255.0,255.0
442,22.1,-1.2342607056413251e-28,8.003114496693621,-33.08499270055917,-1.0559214225339759e-27,0.6057464261176352,-1.4906377558632722,1.2160134826416346e-26,-0.06838997822357717,0.16661282567045252,0,70,255.0,255.0,255.0
443,22.150000000000002,-1.5565112993014248e-28,8.033316068550565,-33.1593158049258,-1.256640875530294e-28,0.6023112086370077,-1.4822760709133889,2.5050158572820993e-26,-0.06901872100151912,0.16785457232487322,0,70,255.0,255.0,255.0
444,22.200000000000003,-1.2525079286409813e-28,8.063345093605008,-33.23321927286163,1.449094434748159e-27,0.5988445540174832,-1.4738522986307847,3.794018231922564e-26,-0.06964746377946106,0.16909631897929395,0,70,255.0,255.0,255.0
445,22.25,0.0,8.0932,-33.3067,3.668354144369408e-27,0.5953464622590617,-1.46536643901546,5.083020606562937e-26,-0.07027620655740119,0.17033806563372167,0,70,255.0,255.0,255.0
446,22.3,2.269112049953645e-28,8.122879153981877,-33.3797544510071,5.007208859342109e-27,0.5918132195584658,-1.4567926340364248,2.7239825332779052e-27,-0.07105350146643429,0.17261413352767935,0,70,255.0,255.0,255.0
447,22.35,4.60632366323924e-28,8.15238067421009,-33.4523773666804,3.9407523976972014e-27,0.5882411121124181,-1.4481050256626917,-4.5382240999073557e-26,-0.07183079637546738,0.17489020142163703,0,70,255.0,255.0,255.0
448,22.400000000000002,5.808979251547964e-28,8.181702617447364,-33.52456305685013,4.689847594346885e-28,0.584630139920919,-1.4393036138942608,-9.348846453142501e-26,-0.07260809128450049,0.1771662693155947,0,70,255.0,255.0,255.0
449,22.450000000000003,4.674423226570994e-28,8.210843040456425,-33.596305831346584,-5.408094055445434e-27,0.5809803029839681,-1.430388398731132,-1.4159468806377648e-25,-0.07338538619353359,0.17944233720955238,0,70,255.0,255.0,255.0
450,22.5,0.0,8.2398,-33.6676,-1.3690484046942486e-26,0.5772916013015658,-1.4213593801733058,-1.8970091159612447e-25,-0.0741626811025684,0.18171840510352233,0,70,255.0,255.0,255.0
451,22.55,-8.46844145849377e-28,8.268571834181374,-33.738440331843215,-1.8687157867173748e-26,0.5735809153067877,-1.4122441103738868,-1.0166041213123303e-26,-0.07426475868855338,0.18289238687323142,0,70,255.0,255.0,255.0
452,22.6,-1.719103394731563e-27,8.297158006466027,-33.80882343271925,-1.4707088168254827e-26,0.5698651254327103,-1.4030701414859823,1.6936882916987786e-25,-0.07436683627453836,0.18406636864294054,0,70,255.0,255.0,255.0
453,22.650000000000002,-2.1679405706890427e-27,8.32555826165999,-33.87874636767368,-1.7502749501857216e-27,0.5661442316793337,-1.3938374735095926,3.4890369955287903e-25,-0.07446891386052333,0.18524035041264963,0,70,255.0,255.0,255.0
454,22.700000000000003,-1.7445184977642994e-27,8.353772344569304,-33.94820620175207,2.0183281787033573e-26,0.5624182340466579,-1.384546106444717,5.284385699358802e-25,-0.0745709914465083,0.18641433218235876,0,70,255.0,255.0,255.0
455,22.75,0.0,8.3818,-34.0172,5.109358204340053e-26,0.5586871325346832,-1.3751960402913568,7.079734403188686e-25,-0.07467306903249238,0.18758831395206954,0,70,255.0,255.0,255.0
456,22.8,3.160465378402144e-27,8.409640709292633,-34.085725021620036,6.974142260935289e-26,0.5549351192143838,-1.3657989244680702,3.7940182319215325e-26,-0.07540746377948084,0.18829631897938556,0,70,255.0,255.0,255.0
457,22.85,6.4157812126023276e-27,8.437292899925817,-34.15377930244262,5.488760027532212e-26,0.551146386156735,-1.356366408393418,-6.3209307568043795e-25,-0.07614185852646929,0.18900432400670159,0,70,255.0,255.0,255.0
458,22.900000000000002,8.090864357601376e-27,8.464754735912685,-34.221361072455196,6.532115041308202e-27,0.5473209333617367,-1.3468984920673999,-1.3021263336800911e-24,-0.07687625327345773,0.18971232903401758,0,70,255.0,255.0,255.0
459,22.950000000000003,6.510631668400097e-27,8.492024381266368,-34.28846856164517,-7.532503309268885e-26,0.543458760829389,-1.337395175490016,-1.9721595916797445e-24,-0.07761064802044619,0.1904203340613336,0,70,255.0,255.0,255.0
460,23.0,0.0,8.5191,-34.3551,-1.9068384412665964e-25,0.5395598685596923,-1.3278564586612667,-2.6421928496793498e-24,-0.07834504276743459,0.1911283390886549,0,70,255.0,255.0,255.0
461,23.05,-1.1795017367759198e-26,8.5459797286481,-34.42125318167665,-2.602785325702378e-25,0.5356226078356692,-1.3182561917538103,-1.4159468806373809e-25,-0.0791453861934869,0.1928823372095959,0,70,255.0,255.0,255.0
462,23.1,-2.3944021455677752e-26,8.572661593830711,-34.48692415751029,-2.0484331293303364e-25,0.5316453299403434,-1.3085682249403068,2.3590034735518736e-24,-0.07994572961953923,0.19463633533053692,0,70,255.0,255.0,255.0
463,23.150000000000002,-3.0195516859716454e-26,8.599143594689279,-34.55210854250558,-2.4378185215047087e-26,0.5276280348737151,-1.2987925582207562,4.8596016351674845e-24,-0.08074607304559155,0.19639033345147794,0,70,255.0,255.0,255.0
464,23.200000000000003,-2.4298008175836082e-26,8.62542373036523,-34.61680195166726,2.811168505837218e-25,0.5235707226357842,-1.2889291915951588,7.360199796783097e-24,-0.08154641647164387,0.19814433157241895,0,70,255.0,255.0,255.0
465,23.25,0.0,8.6515,-34.681,7.11641794463238e-25,0.5194733932265508,-1.2789781250635146,9.860797958398532e-24,-0.08234675989770235,0.19989832969336163,0,70,255.0,255.0,255.0
466,23.3,4.401960409263465e-26,8.677370776114977,-34.744698251673356,9.713727076715985e-25,0.5153584494429451,-1.2689363085166259,5.284385699357386e-25,-0.08225099144652556,0.20177433218218685,0,70,255.0,255.0,255.0
467,23.35,8.936030461010865e-26,8.703035924751338,-34.807892067516256,7.644856514568125e-25,0.5112482940818982,-1.2588006918452956,-8.803920818527054e-24,-0.08215522299534879,0.20365033467101204,0,70,255.0,255.0,255.0
468,23.400000000000002,1.1269120308126447e-25,8.728495685330211,-34.87057675752248,9.098062581888005e-26,0.50714292714341,-1.2485712750495244,-1.813628020698985e-23,-0.082059454544172,0.20552633715983726,0,70,255.0,255.0,255.0
469,23.450000000000003,9.068140103494426e-26,8.753750297272722,-34.93274763168581,-1.0491423692421981e-24,0.5030423486274809,-1.2382480581293116,-2.746863959545264e-23,-0.08196368609299522,0.20740233964866245,0,70,255.0,255.0,255.0
470,23.5,0.0,8.7788,-34.9944,-2.6558833337262924e-24,0.4989465585341107,-1.2278310410846582,-3.680099898391478e-23,-0.08186791764181978,0.20927834213749286,0,70,255.0,255.0,255.0
471,23.55,-1.6428339900277939e-25,8.803644366891996,-35.05552981162993,-3.625212298116156e-24,0.49481559439255346,-1.2173585741796884,-1.9721595916792126e-24,-0.08337064802046587,0.20962033406129274,0,70,255.0,255.0,255.0
472,23.6,-3.334971969847569e-25,8.828280307163942,-35.116135572424696,-2.8530992928942162e-24,0.490609493732064,-1.2068690076785287,3.285667980055635e-23,-0.08487337839911198,0.2099623259850926,0,70,255.0,255.0,255.0
473,23.650000000000002,-4.205692954653413e-25,8.852704063989888,-35.17621642740452,-3.3954431806047386e-25,0.48632825655264217,-1.196362341581179,6.768551919279192e-23,-0.08637610877775807,0.21030431790889248,0,70,255.0,255.0,255.0
474,23.700000000000003,-3.3842759596394097e-25,8.87691188054389,-35.23577152158955,3.915452626385073e-24,0.48197188285428805,-1.185838575887639,1.0251435858502748e-22,-0.08787883915640417,0.21064630983269234,0,70,255.0,255.0,255.0
475,23.75,0.0,8.9009,-35.2948,9.911891540441932e-24,0.477540372637002,-1.1752977105979099,1.3734319797726054e-22,-0.08938156953505061,0.21098830175650463,0,70,255.0,255.0,255.0
476,23.8,6.131139919184829e-25,8.92466535631704,-35.353300101806944,1.3529476484793025e-23,0.47307517298683494,-1.1646853947646807,7.360199796781091e-24,-0.08922641647162911,0.21350433157266058,0,70,255.0,255.0,255.0
477,23.85,1.244628483328919e-24,8.948207646592904,-35.41126644278496,1.064791152012005e-23,0.46861773098983894,-1.1539472774406436,-1.2262279838369836e-22,-0.08907126340820763,0.2160203613888165,0,70,255.0,255.0,255.0
478,23.900000000000002,1.5695859787801005e-24,8.971527258710246,-35.468692732859495,1.2671966464230117e-24,0.464168046646014,-1.1430833586257987,-2.526057965641778e-22,-0.08891611034478614,0.21853639120497245,0,70,255.0,255.0,255.0
479,23.950000000000003,1.2630289828208194e-24,8.994624580551724,-35.52557268195603,-1.4612668136298088e-23,0.4597261199553602,-1.132093638320146,-3.8258879474465725e-22,-0.08876095728136466,0.2210524210211284,0,70,255.0,255.0,255.0
480,24.0,0.0,9.0175,-35.5819,-3.6991682828041434e-23,0.4552919509178778,-1.1209781165236863,-5.125717929251274e-22,-0.08860580421794406,0.2235684508372877,0,70,255.0,255.0,255.0
481,24.05,-2.288172568671152e-24,9.04015340783984,-35.6376689811423,-5.0492693641055935e-23,0.45083571366010466,-1.10977184676154,-2.746863959544516e-23,-0.0896436860929784,0.22468233964855602,0,70,255.0,255.0,255.0
482,24.1,-4.645016736330919e-24,9.062582706464449,-35.692876256435476,-3.973854678758598e-23,0.4463275823085798,-1.0985098825588304,4.576345137342371e-22,-0.09068156796801276,0.2257962284598243,0,70,255.0,255.0,255.0
483,24.150000000000002,-5.857774619655061e-24,9.084785301169136,-35.74751904115751,-4.729242267631591e-24,0.44176755686330327,-1.0871922239155574,9.427376670639193e-22,-0.0917194498430471,0.22691011727109262,0,70,255.0,255.0,255.0
484,24.200000000000003,-4.713688335319338e-24,9.106758597249216,-35.80159455058635,5.45352199188073e-23,0.437155637324275,-1.075818870831721,1.4278408203936015e-21,-0.09275733171808144,0.2280240060823609,0,70,255.0,255.0,255.0
485,24.25,0.0,9.1285,-35.8551,1.380548397717238e-22,0.43249182369149536,-1.0643898233073217,1.912943973723249e-21,-0.09379521359311616,0.22913789489363623,0,70,255.0,255.0,255.0
486,24.3,8.539576282766126e-24,9.1500074123236,-35.90803277362386,1.884412980794307e-22,0.42780597237275675,-1.0529152181891641,1.0251435858499945e-22,-0.09363883915642494,0.22984630983265575,0,70,255.0,255.0,255.0
487,24.35,1.733543846199476e-23,9.171280727549307,-35.960390931473135,1.483062756302239e-22,0.4231279397758527,-1.041405192324056,-1.70791525655325e-21,-0.09348246471973373,0.2305547247716753,0,70,255.0,255.0,255.0
488,24.400000000000002,2.1861512499840142e-23,9.192320336613216,-36.01217270251048,1.7649772424103333e-23,0.4184577259007833,-1.0298597457119965,-3.518344871691499e-21,-0.09332609028304252,0.23126313971069482,0,70,255.0,255.0,255.0
489,24.450000000000003,1.759172435845653e-23,9.213126630451416,-36.063376315698555,-2.0352821153893108e-22,0.4137953307475484,-1.018278878352986,-5.328774486829749e-21,-0.09316971584635131,0.23197155464971433,0,70,255.0,255.0,255.0
490,24.5,0.0,9.2337,-36.114,-5.152276762588537e-22,0.4091407543161483,-1.0066625902470252,-7.139204101967871e-21,-0.093013341409661,0.23267996958874093,0,70,255.0,255.0,255.0
491,24.55,-3.187013256239335e-23,9.254040142865765,-36.16404152436227,-7.03272498676667e-22,0.4044523968488721,-0.9949832804817773,-3.8258879474455545e-22,-0.09452095728138599,0.23449242102116694,0,70,255.0,255.0,255.0
492,24.6,-6.469673711164811e-23,9.274143983338329,-36.21349681767198,-5.534865557333098e-22,0.3996886585880096,-0.9832133481449082,6.3740265124787606e-21,-0.09602857315311097,0.23630487245359297,0,70,255.0,255.0,255.0
493,24.650000000000002,-8.158827537970552e-23,9.294007752378008,-36.26236134880057,-6.586984742878174e-23,0.39484953953356083,-0.9713527932364178,1.3130641819702077e-20,-0.09753618902483596,0.23811732388601897,0,70,255.0,255.0,255.0
494,24.700000000000003,-6.565320909850679e-23,9.313627680945125,-36.31063058661943,7.595776262369165e-22,0.38993503968552584,-0.9594016157563059,1.9887257126925393e-20,-0.09904380489656095,0.23992977531844498,0,70,255.0,255.0,255.0
495,24.75,0.0,9.333,-36.3583,1.9228558652636912e-21,0.38494515904390497,-0.9473598157045737,2.664387243414823e-20,-0.10055142076828494,0.24174222675087265,0,70,255.0,255.0,255.0
496,24.8,1.1894095396680729e-22,9.35212161621334,-36.40536512892707,2.6246486966272374e-21,0.3799204402317462,-0.9352316598837436,1.4278408203932156e-21,-0.10043733171806286,0.2433840060823272,0,70,255.0,255.0,255.0
497,24.85,2.414515099845977e-22,9.370992139097384,-36.45182179783893,2.0656399473030147e-21,0.37490142587209857,-0.9230214150963406,-2.37881907933618e-20,-0.10032324266784078,0.24502578541378175,0,70,255.0,255.0,255.0
498,24.900000000000002,3.044915890189819e-22,9.389611853874758,-36.49766590228727,2.458296172910227e-22,0.36988811596496196,-0.910729081342365,-4.900422240711681e-20,-0.1002091536176187,0.2466675647452363,0,70,255.0,255.0,255.0
499,24.950000000000003,2.450211120355707e-22,9.40798104576809,-36.54289333782373,-2.8347822934087364e-21,0.36488051051033654,-0.8983546586218166,-7.422025402087183e-20,-0.10009506456739663,0.24830934407669086,0,70,255.0,255.0,255.0
500,25.0,0.0,9.4261,-36.5875,-7.176195784795911e-21,0.3598786095082225,-0.8858981469346964,-9.943628563462507e-20,-0.099980975517175,0.2499511234081444,0,70,255.0,255.0,255.0
501,25.05,-4.438936833048358e-22,9.443968592280877,-36.63148195992946,-9.795322287832284e-21,0.3548578422241347,-0.8733700799832473,-5.328774486828313e-21,-0.10084971584633387,0.25117155464980867,0,70,255.0,255.0,255.0
502,25.1,-9.011093028267427e-22,9.461585060272139,-36.67483599097229,-7.70907323347875e-21,0.3497936379235889,-0.8607809914697152,8.877873666096844e-20,-0.10171845617549276,0.25239198589147294,0,70,255.0,255.0,255.0
503,25.150000000000002,-1.1363780806962221e-21,9.478947232122962,-36.7175590420504,-9.174486217353134e-22,0.3446859966065852,-0.8481308813940996,1.828862478087652e-19,-0.10258719650465163,0.2536124171331372,0,70,255.0,255.0,255.0
504,25.200000000000003,-9.144312390437751e-22,9.496052935982526,-36.75964806208567,1.057955154739803e-20,0.3395349182731236,-0.8354197497564011,2.7699375895656197e-19,-0.10345593683381052,0.25483284837480147,0,70,255.0,255.0,255.0
505,25.25,0.0,9.5129,-36.8011,2.6781927273919954e-20,0.3343404029232045,-0.8226475965566201,3.711012701043519e-19,-0.10432467716296978,0.25605327961646385,0,70,255.0,255.0,255.0
506,25.3,1.6566337792525355e-21,9.52948641466315,-36.8419118313551,3.655664045470189e-20,0.3291121908717156,-0.8098160201832499,1.9887257126919985e-20,-0.10480380489658155,0.2572097753183366,0,70,255.0,255.0,255.0
507,25.35,3.3629857013223726e-21,9.54581081981406,-36.88208063827191,2.877065298661198e-20,0.32386002243354617,-0.7969266190247861,-3.3132675585051195e-19,-0.10528293263019332,0.2583662710202093,0,70,255.0,255.0,255.0
508,25.400000000000002,4.2410207337659056e-21,9.561872017633396,-36.92160352951116,3.42396486965023e-21,0.31858389760869615,-0.7839793930812287,-6.825407688279439e-19,-0.10576206036380509,0.2595227667220821,0,70,255.0,255.0,255.0
509,25.450000000000003,3.412703844139532e-21,9.57766881030182,-36.96047761383362,-3.9483423896183374e-20,0.3132838163971655,-0.7709743423525774,-1.0337547818053758e-18,-0.10624118809741685,0.26067926242395484,0,70,255.0,255.0,255.0
510,25.5,0.0,9.5932,-36.9987,-9.99515133108839e-20,0.30795977879895464,-0.7579114668388338,-1.3849687947827829e-18,-0.10672031583103081,0.2618357581258266,0,70,255.0,255.0,255.0
511,25.55,-6.182641433705307e-21,9.608464149066519,-37.03626751465014,-1.364312395309753e-19,0.3025973942889943,-0.7447738392837716,-7.422025402085186e-20,-0.10777506456737972,0.2636693440766557,0,70,255.0,255.0,255.0
512,25.6,-1.2550833502462746e-20,9.623458860471619,-37.073175855940086,-1.0737353871296919e-19,0.2971822723422165,-0.7315445324311679,1.2365282867410792e-18,-0.10882981330372864,0.2655029300274848,0,70,255.0,255.0,255.0
513,25.650000000000002,-1.5827704854367404e-20,9.63818149734346,-37.10942043990496,-1.2778410856865631e-20,0.2917144129586213,-0.7182235462810227,2.5472768275030102e-18,-0.10988456204007754,0.2673365159783139,0,70,255.0,255.0,255.0
514,25.700000000000003,-1.2736384137514349e-20,9.6526294228102,-37.144996682579894,1.4735414403733548e-19,0.2861938161382086,-0.7048108808333361,3.858025368264942e-18,-0.11093931077642646,0.269170101929143,0,70,255.0,255.0,255.0
515,25.75,0.0,9.6668,-37.1799,3.7302412596961567e-19,0.2806204818809788,-0.6913065360881089,5.1687739090267795e-18,-0.11199405951277663,0.2710036878799711,0,70,255.0,255.0,255.0
516,25.8,2.307393195556869e-20,9.680691389070773,-37.214126110044354,5.091683176691994e-19,0.2750422319723137,-0.6777286226817353,2.7699375895648686e-19,-0.1111359368338264,0.27211284837496436,0,70,255.0,255.0,255.0
517,25.85,4.6840348308528626e-20,9.694304938299465,-37.247671937967766,4.007235018652647e-19,0.269506888197596,-0.6640952512506121,-4.614786391113806e-18,-0.11027781415487616,0.27322200886995757,0,70,255.0,255.0,255.0
518,25.900000000000002,5.906979868370373e-20,9.707642792992766,-37.280534710869006,4.76896785578122e-20,0.26401445055682593,-0.6504064217947391,-9.506566541184098e-18,-0.10941969147592592,0.27433116936495083,0,70,255.0,255.0,255.0
519,25.950000000000003,4.753283270591787e-20,9.72070709845738,-37.31271165584683,-5.499331522531587e-19,0.2585649190500033,-0.6366621343141166,-1.439834669125439e-17,-0.10856156879697569,0.2754403298599441,0,70,255.0,255.0,255.0
520,26.0,0.0,9.7335,-37.3442,-1.3921449905675787e-18,0.2531582936771285,-0.6228623888087454,-1.9290126841324332e-17,-0.10770344611802773,0.27654949035493637,0,70,255.0,255.0,255.0
521,26.05,-8.611308638856946e-20,9.746022294650384,-37.37499684517247,-1.9002420311458217e-18,0.2477136778217425,-0.6089996699892722,-1.0337547818050983e-18,-0.11008118809740942,0.27795926242398217,0,70,255.0,255.0,255.0
522,26.1,-1.748105597316517e-19,9.758269386330525,-37.405098792188866,-1.4955204687480899e-18,0.2421501748673874,-0.5950664625663469,1.7222617277714136e-17,-0.11245893007679111,0.279369034493028,0,70,255.0,255.0,255.0
523,26.150000000000002,-2.204514898804474e-19,9.770235330685473,-37.434502316619046,-1.7798030337438292e-19,0.23646778481406322,-0.5810627665399691,3.547898933723337e-17,-0.11483667205617279,0.2807788065620738,0,70,255.0,255.0,255.0
524,26.200000000000003,-1.7739494668615715e-19,9.781914183360282,-37.463203894032816,2.052378464975298e-18,0.23066650766176997,-0.566988581910139,5.3735361396752604e-17,-0.11721441403555448,0.2821885786311196,0,70,255.0,255.0,255.0
525,26.25,0.0,9.7933,-37.4912,5.195555836300699e-18,0.22474634341050806,-0.5528439086768577,7.199173345627053e-17,-0.11959215601493622,0.28359835070016537,0,70,255.0,255.0,255.0
526,26.3,3.213784135987091e-19,9.804388232327689,-37.51848730926579,7.091799806914086e-18,0.21879105674072435,-0.5386406973611291,3.858025368263888e-18,-0.11861931077640907,0.28453010192897105,0,70,255.0,255.0,255.0
527,26.35,6.524018906180783e-19,9.815179916378439,-37.545063293276755,5.581358373127093e-18,0.21288441233286698,-0.5243908984839603,-6.427568271974276e-17,-0.11764646553788191,0.2854618531577767,0,70,255.0,255.0,255.0
528,26.400000000000002,8.227361608380861e-19,9.825677484265343,-37.570925622654826,6.642315349397179e-19,0.207026410186936,-0.5100945120453511,-1.3240939080774942e-16,-0.11667362029935475,0.2863936043865824,0,70,255.0,255.0,255.0
529,26.450000000000003,6.620469540387105e-19,9.835883368101497,-37.59607196802194,-7.659580707648035e-18,0.20121705030293133,-0.4957515380453016,-2.0054309889575604e-16,-0.1157007750608276,0.2873253556153881,0,70,255.0,255.0,255.0
530,26.5,0.0,9.8458,-37.6205,-1.9390078354635216e-17,0.1954563326808535,-0.48136197648381296,-2.6867680698375783e-16,-0.11472792982230029,0.2882571068441946,0,70,255.0,255.0,255.0
531,26.55,-1.199400568006267e-18,9.855428776038858,-37.644206717764376,-2.6466957196510524e-17,0.18968209521537022,-0.4668855405662068,-1.439834669125043e-17,-0.11624156879702723,0.29080032986004467,0,70,255.0,255.0,255.0
532,26.6,-2.4347970027406613e-18,9.864766948155726,-37.66718643470411,-2.082991302376028e-17,0.1838321758011506,-0.4522819434978081,2.3988011360125697e-16,-0.11775520777175416,0.29334355287589475,0,70,255.0,255.0,255.0
533,26.650000000000002,-3.0704931534718968e-18,9.873810732253162,-37.68943279276164,-2.478945836384485e-18,0.17790657443819463,-0.4375511852786169,4.941585738937644e-16,-0.1192688467464811,0.2958867758917449,0,70,255.0,255.0,255.0
534,26.700000000000003,-2.4707928694686847e-18,9.882556344233732,-37.71093943387945,2.858594436561685e-17,0.17190529112650232,-0.4226932659086332,7.484370341862718e-16,-0.12078248572120805,0.298429998907595,0,70,255.0,255.0,255.0
535,26.75,0.0,9.891,-37.7317,7.236475758224017e-17,0.16582832586607407,-0.407708185387858,1.0027154944787608e-15,-0.12229612469593465,0.3009732219234431,0,70,255.0,255.0,255.0
536,26.8,4.476223858426358e-18,9.899138263516877,-37.75170901967669,9.877602897912801e-17,0.1596965623977871,-0.3926491403739949,5.3735361396738195e-17,-0.12297441403554071,0.30138857863107393,0,70,255.0,255.0,255.0
537,26.85,9.086786120344567e-18,9.906969090998663,-37.77096456790681,7.773829372191404e-17,0.15353088446251983,-0.3775693275247502,-8.952447716852844e-16,-0.12365270337514678,0.30180393533870475,0,70,255.0,255.0,255.0
538,26.900000000000002,1.1459236453049501e-17,9.914490786722011,-37.78946560629857,9.251551810598253e-18,0.14733129206027223,-0.362468746840124,-1.8442249047673075e-15,-0.12433099271475284,0.3022192920463356,0,70,255.0,255.0,255.0
539,26.950000000000003,9.221124523836029e-18,9.921701654963572,-37.80721109646023,-1.0668419675481933e-16,0.14109778519104435,-0.34734739832011624,-2.7932050378493297e-15,-0.1250092820543589,0.3026346487539664,0,70,255.0,255.0,255.0
540,27.0,0.0,9.9286,-37.8242,-2.7006895197432544e-16,0.13483036385483665,-0.332205281964728,-3.742185170931286e-15,-0.12568757139396491,0.3030500054615972,0,70,255.0,255.0,255.0
541,27.05,-1.6705494865699172e-17,9.935184569893638,-37.84043080352885,-3.6863715872000147e-16,0.12855565519346732,-0.3170138979378058,-2.0054309889570215e-16,-0.12530077506080523,0.30460535561527974,0,70,255.0,255.0,255.0
542,27.1,-3.3912347478637605e-17,9.941455887849624,-37.85590009366865,-2.9012326186389587e-16,0.12230028634875595,-0.3017447464031996,3.3410989731398817e-15,-0.12491397872764555,0.30616070576896226,0,70,255.0,255.0,255.0
543,27.150000000000002,-4.27664526587261e-17,9.947414920858792,-37.87060398204404,-3.4527261406008575e-17,0.11606425732070258,-0.2863978273609092,6.882741045175466e-15,-0.12452718239448586,0.30771605592264484,0,70,255.0,255.0,255.0
544,27.200000000000003,-3.441370522587544e-17,9.953062635911973,-37.88453858027961,3.9815084265366065e-16,0.1098475681093072,-0.27097314081093465,1.042438311721105e-14,-0.12414038606132619,0.30927140607632736,0,70,255.0,255.0,255.0
545,27.25,0.0,9.9584,-37.8977,1.0079110503150616e-15,0.10365021871457022,-0.25547068675327705,1.396602518924638e-14,-0.1237535897281663,0.31082675623001066,0,70,255.0,255.0,255.0
546,27.3,6.23457556043703e-17,9.96342745690857,-37.91008456620792,1.375772605900878e-15,0.09744081682833601,-0.23990326787483238,7.484370341860688e-16,-0.12462248572119897,0.3118699989077675,0,70,255.0,255.0,255.0
547,27.35,1.2656260379420585e-16,9.96814335760284,-37.92168945741859,1.0827547537336694e-15,0.09118797014245016,-0.22428368686249986,-1.2469151120874242e-14,-0.12549138171423163,0.3129132415855244,0,70,255.0,255.0,255.0
548,27.400000000000002,1.5960657418185492e-16,9.972545529842822,-37.93251206552528,1.28857493813436e-16,0.08489167865691265,-0.2086119437162795,-2.5686739275934554e-14,-0.12636027770726432,0.31395648426328127,0,70,255.0,255.0,255.0
549,27.450000000000003,1.2843369637966563e-16,9.976631801388535,-37.94254978242131,-1.4859191738598227e-15,0.07855194237172354,-0.19288803843617128,-3.890432743099486e-14,-0.127229173700297,0.31499972694103817,0,70,255.0,255.0,255.0
550,27.5,0.0,9.9804,-37.9518,-3.761575249285921e-15,0.07216876128688325,-0.17711197102217635,-5.212191558605425e-14,-0.1280980696933296,0.3160429696187945,0,70,255.0,255.0,255.0
551,27.55,-2.3267752755178213e-16,9.983847202472075,-37.96025813163944,-5.13445326488351e-15,0.06569707749319129,-0.16116503056285825,-2.793205037848578e-15,-0.13076928205434546,0.32183464875392137,0,70,255.0,255.0,255.0
552,27.6,-4.723380676981859e-16,9.986967481739018,-37.967911676657,-4.040895753070782e-15,0.05909183308144852,-0.14492850614678376,4.6535505510357095e-14,-0.13344049441536132,0.3276263278890482,0,70,255.0,255.0,255.0
553,27.650000000000002,-5.956598440686936e-16,9.989754159769921,-37.97474615585484,-4.809027138477368e-16,0.05235302805165497,-0.12840239777395293,9.586421605856277e-14,-0.13611170677637716,0.33341800702417507,0,70,255.0,255.0,255.0
554,27.700000000000003,-4.793210802927874e-16,9.992200558533883,-37.98074709003512,5.54552585278563e-15,0.04548066240381061,-0.11158670544436577,1.4519292660676843e-13,-0.13878291913739302,0.3392096861593019,0,70,255.0,255.0,255.0
555,27.75,0.0,9.9943,-37.9859,1.4038389946828622e-14,0.038474736137915966,-0.09448142915802346,1.945216371549706e-13,-0.1414541314984087,0.3450013652944286,0,70,255.0,255.0,255.0
