idx,t,px,py,pz,vx,vy,vz,ax,ay,az,yaw,mode,ledr,ledg,ledb
0,0.0,3.0,0.0,0.0,-4.14106032853435e-11,-6.069139947288542e-11,0.08070372958798289,4.96927239424122e-10,7.28296793674625e-10,-2.2460447550557943,0,70,255.0,255.0,255.0
1,0.05,2.9999999999985096,-2.1848903810238748e-12,0.0012485342651673834,-1.9048877511258012e-11,-2.7918043757527294e-11,-0.030344284389527864,3.975417915392976e-10,5.826374349397e-10,-2.1958758040446353,0,70,255.0,255.0,255.0
2,0.1,2.9999999999980123,-2.913187174698499e-12,-0.002992620979776823,-1.6564241314137407e-12,-2.4276559789154205e-12,-0.13888385081648066,2.9815634365447316e-10,4.36978076204775e-10,-2.145706853033477,0,70,255.0,255.0,255.0
3,0.15000000000000002,2.999999999998261,-2.5490387778611874e-12,-0.01259804335730472,1.0766756854189317e-11,1.577976386295021e-11,-0.24491496969287557,1.9877089576964874e-10,2.9131871746984995e-10,-2.095537902022318,0,70,255.0,255.0,255.0
4,0.2,2.999999999999006,-1.4565935873492471e-12,-0.02744231048988842,1.8220665445551136e-11,2.6704215768069568e-11,-0.3484376410187125,9.938544788482437e-11,1.45659358734925e-10,-2.0453689510111595,0,70,255.0,255.0,255.0
5,0.25,3.0,0.0,-0.0474,2.070530164267175e-11,3.034569973644271e-11,-0.44945186479399146,0.0,0.0,-1.9952000000000005,0,70,255.0,255.0,255.0
6,0.30000000000000004,3.000000000000994,1.4565935873492512e-12,-0.07234568951011161,1.8220665445551136e-11,2.6704215768069577e-11,-0.5479576410187126,-9.938544788482448e-11,-1.4565935873492513e-10,-1.9450310489888412,0,70,255.0,255.0,255.0
7,0.35000000000000003,3.000000000001739,2.549038777861188e-12,-0.1021539566426953,1.0766756854189304e-11,1.5779763862950198e-11,-0.6439549696928757,-1.9877089576964887e-10,-2.913187174698501e-10,-1.894862097977682,0,70,255.0,255.0,255.0
8,0.4,3.0000000000019877,2.9131871746985e-12,-0.13669937902022322,-1.6564241314137455e-12,-2.427655978915427e-12,-0.7374438508164807,-2.9815634365447326e-10,-4.3697807620477505e-10,-1.8446931469665226,0,70,255.0,255.0,255.0
9,0.45,3.000000000001491,2.184890381023874e-12,-0.17585653426516742,-1.9048877511258018e-11,-2.7918043757527307e-11,-0.828424284389528,-3.9754179153929763e-10,-5.826374349397e-10,-1.7945241959553635,0,70,255.0,255.0,255.0
10,0.5,3.0,0.0,-0.2195,-4.14106032853435e-11,-6.069139947288542e-11,-0.9168962704120169,-4.96927239424122e-10,-7.28296793674625e-10,-1.7443552449441935,0,70,255.0,255.0,255.0
11,0.55,2.9999999999975153,-3.641483968373129e-12,-0.26749937622472103,-5.3833784270946554e-11,-7.889881931475104e-11,-1.0025611515356216,5.169878828456423e-25,6.203854594147708e-25,-1.6822399999999955,0,70,255.0,255.0,255.0
12,0.6000000000000001,2.9999999999950306,-7.282967936746255e-12,-0.3197043524494421,-4.141060328534345e-11,-6.069139947288534e-11,-1.0851202704120166,4.96927239424123e-10,7.282967936746262e-10,-1.6201247550557976,0,70,255.0,255.0,255.0
13,0.65,2.9999999999937885,-9.103709920932812e-12,-0.37595964056180253,-4.141060328534338e-12,-6.06913994728849e-12,-1.1645736270412015,9.938544788482444e-10,1.4565935873492504e-09,-1.5580095101115998,0,70,255.0,255.0,255.0
14,0.7000000000000001,2.99999999999503,-7.282967936746245e-12,-0.43610995244944206,5.797484459948104e-11,8.496795926203974e-11,-1.2409212214231766,1.4907817182723668e-09,2.184890381023876e-09,-1.4958942651674016,0,70,255.0,255.0,255.0
15,0.75,3.0,0.0,-0.5,1.4493711149870227e-10,2.1241989815509896e-10,-1.3141630535579414,1.987708957696489e-09,2.9131871746984996e-09,-1.433779020223195,0,70,255.0,255.0,255.0
16,0.8,3.0000000000089444,1.3109342286143263e-11,-0.5674760055910044,1.971144716382351e-10,2.8889106149093457e-10,-1.3843897528388003,9.938544788482328e-11,1.4565935873492252e-10,-1.3752889510111586,0,70,255.0,255.0,255.0
17,0.8500000000000001,3.000000000018138,2.658283296912383e-11,-0.6383902335595368,1.5487565628718456e-10,2.2698583402859116e-10,-1.4516919486590574,-1.7889380619268422e-09,-2.6218684572286545e-09,-1.316798881799122,0,70,255.0,255.0,255.0
18,0.9,3.0000000000228586,3.350165250903275e-11,-0.7125964587325667,1.8220665445551097e-11,2.670421576806944e-11,-1.5160696410187124,-3.6772615717385045e-09,-5.389396273192226e-09,-1.2583088125870858,0,70,255.0,255.0,255.0
19,0.9500000000000001,3.000000000018386,2.6946981365961095e-11,-0.7899484559370646,-2.1285050088666606e-10,-3.1195379329063167e-10,-1.577522829917766,-5.56558508155017e-09,-8.156924089155803e-09,-1.1998187433750493,0,70,255.0,255.0,255.0
20,1.0,3.0,0.0,-0.8703,-5.383378427094656e-10,-7.889881931475104e-10,-1.6360515153562174,-7.453908591361831e-09,-1.0924451905119374e-08,-1.1413286741630166,0,70,255.0,255.0,255.0
21,1.05,2.999999999966706,-4.879588517619991e-11,-0.9535062014112615,-7.346241022819938e-10,-1.0766654266489872e-09,-1.6917358371091769,-3.9754179153929065e-10,-5.826374349396901e-10,-1.0860441959553646,0,70,255.0,255.0,255.0
22,1.1,2.9999999999324176,-9.904836393974906e-11,-1.0394275133124113,-5.780920218633946e-10,-8.472519366414793e-10,-1.744655934951754,6.65882500828325e-09,9.759177035239994e-09,-1.0307597177477126,0,70,255.0,255.0,255.0
23,1.1500000000000001,2.999999999914777,-1.2490290011519824e-10,-1.1279257245079306,-6.874160145366819e-11,-1.0074772312498689e-10,-1.7948118088839482,1.371519180810579e-08,2.0100991505419676e-08,-0.9754752395400607,0,70,255.0,255.0,255.0
24,1.2000000000000002,2.999999999931424,-1.0050495752709805e-10,-1.2188626238023001,7.934271589471856e-10,1.16284721390049e-09,-1.84220345890576,2.077155860792833e-08,3.0442805975599364e-08,-0.9201907613324087,0,70,255.0,255.0,255.0
25,1.25,3.0,0.0,-1.3121,2.00841425933916e-09,2.9435328744349427e-09,-1.8868308850171889,2.782792540775084e-08,4.0784620445779e-08,-0.864906283124748,0,70,255.0,255.0,255.0
26,1.3,3.0000000001242317,1.8207419841865643e-10,-1.40750478876395,2.7413819374897404e-09,4.017770645105015e-09,-1.9290028987244925,1.490781718272345e-09,2.184890381023849e-09,-0.8219742651673915,0,70,255.0,255.0,255.0
27,1.35,3.0000000002521907,3.6961062278987253e-10,-1.5049645131908183,2.1574924311663946e-09,3.1620219125373284e-09,-1.9690283115339282,-2.484636197120615e-08,-3.6414839683731305e-08,-0.7790422472100349,0,70,255.0,255.0,255.0
28,1.4000000000000001,3.0000000003180336,4.661099479517601e-10,-1.6043718432357117,2.5674574036912316e-10,3.7628667673187914e-10,-2.006907123445496,-5.118350566068465e-08,-7.501456974848647e-08,-0.7361102292526782,0,70,255.0,255.0,255.0
29,1.4500000000000002,3.000000000255917,3.750728487424312e-10,-1.7056194488537368,-2.960858134902074e-09,-4.339435062311325e-09,-2.0426393344591958,-7.752064935016314e-08,-1.1361429981324161e-07,-0.6931782112953218,0,70,255.0,255.0,255.0
30,1.5,3.0,0.0,-1.8086,-7.495319194647175e-09,-1.098514330459226e-08,-2.076224944575028,-1.0385779303964152e-07,-1.5221402987799668e-07,-0.6502461933379564,0,70,255.0,255.0,255.0
31,1.55,2.999999999536367,-6.795009084984258e-10,-1.9131986435329396,-1.0230903647676966e-08,-1.4994417153771075e-08,-2.1072125679928533,-5.565585081550084e-09,-8.156924089155697e-09,-0.5892587433750535,0,70,255.0,255.0,255.0
32,1.6,2.9999999990588195,-1.3793941272197408e-09,-2.0192704339243166,-8.051877702802182e-09,-1.180083571350783e-08,-2.135150818912533,9.272662287654135e-08,1.3590018169968528e-07,-0.5282712934121504,0,70,255.0,255.0,255.0
33,1.6500000000000001,2.9999999988130894,-1.7395368916918424e-09,-2.1266629025492234,-9.582413600228195e-10,-1.404398983802535e-09,-2.160039697334068,1.9101883083463277e-07,2.799572874885263e-07,-0.46728384344924745,0,70,255.0,255.0,255.0
34,1.7000000000000002,2.9999999990449058,-1.3997864374426264e-09,-2.2352235807827543,1.1050005380661114e-08,1.619489303534482e-08,-2.1818792032574583,2.893110387927242e-07,4.2401439327736724e-07,-0.4062963934863445,0,70,255.0,255.0,255.0
35,1.75,3.0,0.0,-2.3448,2.797286251924954e-08,4.09970403439341e-08,-2.200669336682702,3.876032467508153e-07,5.680714990662077e-07,-0.345308943523424,0,70,255.0,255.0,255.0
36,1.8,3.0000000017303003,2.535929435575047e-09,-2.4552414371042937,3.8182232653218136e-08,5.5959897969979286e-08,-2.216514829304098,2.077155860792802e-08,3.04428059755989e-08,-0.28851076133239595,0,70,255.0,255.0,255.0
37,1.85,3.0000000035125307,5.147965886089091e-09,-2.5664041511119176,3.0050018380042356e-08,4.404132094149399e-08,-2.229520412815942,-3.460601295349593e-07,-5.071858871150099e-07,-0.23171257914136792,0,70,255.0,255.0,255.0
38,1.9000000000000001,3.000000004429609,6.492037618815609e-09,-2.6781461465673955,3.5762196997221705e-09,5.241309258478241e-09,-2.2396860872182347,-7.128918176778464e-07,-1.0448145802056186e-06,-0.1749143969503399,0,70,255.0,255.0,255.0
39,1.9500000000000002,3.000000003564459,5.224072901028074e-09,-2.7903254280152487,-4.1239163387742353e-08,-6.044013707906796e-08,-2.2470118525109757,-1.0797235058207339e-06,-1.5824432732962274e-06,-0.11811621475931183,0,70,255.0,255.0,255.0
40,2.0,3.0,0.0,-2.9028,-1.0439613088235099e-07,-1.5300301807114415e-07,-2.2514977086941657,-1.4465551939636197e-06,-2.1200719663868336e-06,-0.06131803256829116,0,70,255.0,255.0,255.0
41,2.0500000000000003,2.999999993542431,-9.464216833801808e-09,-3.015427608049889,-1.4249802696519558e-07,-2.0884517472614603e-07,-2.253128114790756,-7.752064935015574e-08,-1.1361429981323077e-07,-0.003898211295318227,0,70,255.0,255.0,255.0
42,2.1,2.999999986891059,-1.9212469417136622e-08,-3.128064961628015,-1.121481958173672e-07,-1.6436444805246812e-07,-2.2518875298236973,1.291513895263296e-06,1.8928433667603542e-06,0.05352160997765419,0,70,255.0,255.0,255.0
43,2.15,2.999999983468473,-2.4228613583570586e-08,-3.2405685111811966,-1.3346637438866432e-08,-1.9560838050111283e-08,-2.2477759537929907,2.660548439876748e-06,3.899301033333939e-06,0.11094143125062661,0,70,255.0,255.0,255.0
44,2.2,2.999999986697258,-1.9496505166669677e-08,-3.3527947071562534,1.5390664817030836e-07,2.255656552809271e-07,-2.240793386698635,4.0295829844902115e-06,5.905758699907542e-06,0.16836125252359954,0,70,255.0,255.0,255.0
45,2.25,3.0,0.0,-3.4646,3.8961166101015444e-07,5.710150319406425e-07,-2.230939828540631,5.398617529103664e-06,7.912216366481126e-06,0.22578107379656842,0,70,255.0,255.0,255.0
46,2.3000000000000003,3.000000024099977,3.532093789963218e-08,-3.5758401306961543,5.318098752075642e-07,7.794208009346049e-07,-2.2181727115328753,2.89311038792697e-07,4.2401439327732674e-07,0.2849036065136548,0,70,255.0,255.0,255.0
47,2.35,3.0000000489232326,7.17019117824574e-08,-3.6863680023760237,4.185427648894264e-07,6.134164712683786e-07,-2.2024494678892657,-4.819995451518224e-06,-7.064187579926407e-06,0.34402613923074066,0,70,255.0,255.0,255.0
48,2.4000000000000004,3.0000000616964986,9.042241671546676e-08,-3.7960358087078165,4.9810330055739135e-08,7.300204294196033e-08,-2.1837700976098016,-9.929301941829191e-06,-1.4552389553130207e-05,0.40314867194782705,0,70,255.0,255.0,255.0
49,2.45,3.0000000496465096,7.276194776565062e-08,-3.9046957433597393,-5.743874292934914e-07,-8.418224840446403e-07,-2.1621346006944826,-1.5038608432140113e-05,-2.204059152633394e-05,0.4622712046649129,0,70,255.0,255.0,255.0
50,2.5,3.0,0.0,-4.0122,-1.4540505131582668e-06,-2.1310571096914258e-06,-2.13754297714331,-2.014791492245103e-05,-2.9528793499537672e-05,0.5213937373819988,0,70,255.0,255.0,255.0
51,2.5500000000000003,2.99999991005766,-1.318195347647269e-07,-4.1184022691654985,-1.984741473865061e-06,-2.9088380290122737e-06,-2.110085039077743,-1.0797235058206276e-06,-1.5824432732960762e-06,0.5769237852406863,0,70,255.0,255.0,255.0
52,2.6,2.9999998174160125,-2.67595177712693e-07,-4.223162228867892,-1.5620228637403378e-06,-2.2893014370210465e-06,-2.0798505986192413,1.7988467910809604e-05,2.636390695294527e-05,0.6324538330993733,0,70,255.0,255.0,255.0
53,2.6500000000000004,2.9999997697455334,-3.3746105327829655e-07,-4.32634105398754,-1.8589468278409096e-07,-2.7244733371773146e-07,-2.0468396557678057,3.705665932744e-05,5.431025717918687e-05,0.6879838809580608,0,70,255.0,255.0,255.0
54,2.7,2.9999998147167033,-2.7155128589593287e-07,-4.427799919404791,2.143643069003657e-06,3.141724280897633e-06,-2.0110522105234354,5.6124850744070236e-05,8.225660740542821e-05,0.7435139288167478,0,70,255.0,255.0,255.0
55,2.75,3.0,0.0,-4.5274,5.4265903916229125e-06,7.95321340682506e-06,-1.972488262886131,7.519304216070048e-05,0.00011020295763166959,0.7990439766754331,0,70,255.0,255.0,255.0
56,2.8000000000000003,3.000000335669381,4.919572011592754e-07,-4.6250003926418595,7.40715602025268e-06,1.0855931315114492e-05,-1.9310231321561548,4.0295829844898235e-06,5.905758699906996e-06,0.8595612525236056,0,70,255.0,255.0,255.0
57,2.85,3.0000006814127196,9.986787990683144e-07,-4.7204518821524095,5.8295486900719276e-06,8.543789276815804e-06,-1.8865321376337705,-6.713387619172018e-05,-9.839144023185467e-05,0.9200785283717775,0,70,255.0,255.0,255.0
58,2.9000000000000004,3.0000008593213674,1.2594217963977195e-06,-4.813603175342029,6.937684010806232e-07,1.016787291928968e-06,-1.8390152793189771,-0.00013829733536793083,-0.00020268863916361724,0.9805958042199501,0,70,255.0,255.0,255.0
59,2.95,3.0000006914866773,1.0134431958180805e-06,-4.904302979021099,-8.000184846721139e-06,-1.1725074639545894e-05,-1.7884725572117754,-0.00020946079454414084,-0.0003069858380953789,1.0411130800681219,0,70,255.0,255.0,255.0
60,3.0,3.0,0.0,-4.9924,-2.0252311053333385e-05,-2.9681796517608817e-05,-1.7349039713121652,-0.00028062425372035087,-0.0004112830370271406,1.1016303559162939,0,70,255.0,255.0,255.0
61,3.0500000000000003,2.9999987472648155,-1.8360092698723746e-06,-5.077748160267069,-2.7643882607145667e-05,-4.0514887231445686e-05,-1.6786224322976346,-1.5038608432138697e-05,-2.204059152633185e-05,1.1496312046649144,0,70,255.0,255.0,255.0
62,3.1,2.9999974569331105,-3.7271200185605662e-06,-5.160222242522473,-2.175617189654737e-05,-3.188585567024217e-05,-1.6199408508456739,0.0002505470368560711,0.00036720185397447354,1.1976320534135345,0,70,255.0,255.0,255.0
63,3.1500000000000004,2.9999967929689975,-4.700226132312581e-06,-5.239702244644345,-2.5891789215384044e-06,-3.794701833998129e-06,-1.558859226956281,0.0005161326821442833,0.0007564442994752822,1.2456329021621548,0,70,255.0,255.0,255.0
64,3.2,2.9999974193365895,-3.7822214973763913e-06,-5.316068164510811,2.9857096317880886e-05,4.375857427728593e-05,-1.495377560629458,0.000781718327432493,0.0011456867449760877,1.293633750910775,0,70,255.0,255.0,255.0
65,3.25,3.0,0.0,-5.3892,7.558265382171062e-05,0.00011077397266361021,-1.4294958518652041,0.001047303972720703,0.0015349291904768931,1.3416345996593986,0,70,255.0,255.0,255.0
66,3.3000000000000003,3.0000046752713563,6.852079878330223e-06,-5.45895736628987,0.00010316837440832997,0.00015120361761066826,-1.3599911386533006,5.612485074406488e-05,8.22566074054204e-05,1.438553928816731,0,70,255.0,255.0,255.0
67,3.35,3.000009490854839,1.3909801275173948e-05,-5.525118347757698,8.119513889611755e-05,0.00011899963340415292,-1.2856404589835309,-0.000935054271232564,-0.0013704159756660393,1.5354732579740626,0,70,255.0,255.0,255.0
68,3.4000000000000004,3.000011968802644,1.7541482732852607e-05,-5.5874406460805925,9.662947285073045e-06,1.4162020044063595e-05,-1.206443812855894,-0.001926233393209202,-0.0028230885587375125,1.632392587131395,0,70,255.0,255.0,255.0
69,3.45,3.000009631166966,1.4115442793687482e-05,-5.645681962935657,-0.00011142820042480236,-0.0001633092224695979,-1.1224012002703914,-0.002917412515185831,-0.004275761141808972,1.7293119162887265,0,70,255.0,255.0,255.0
70,3.5,3.0,0.0,-5.6996,-0.0002820783042335091,-0.00041341409413683203,-1.033512621227022,-0.003908591637162461,-0.005728433724880431,1.8262312454460616,0,70,255.0,255.0,255.0
71,3.5500000000000003,2.9999817516497598,-2.6372310243448533e-05,-5.748999174573451,-0.000433029615026276,-0.0006122995832112279,-0.9425810130891666,-0.002129460794548183,-0.00222698583809536,1.8110330800681356,0,70,255.0,255.0,255.0
72,3.6,2.9999581796475328,-5.831208508213523e-05,-5.793870766446732,-0.0004950243836883283,-0.0006361126779463697,-0.8524093132202083,-0.00035032995193392093,0.0012744620486896804,1.7958349146902097,0,70,255.0,255.0,255.0
73,3.6500000000000004,2.999933731820426,-8.7065704799098e-05,-5.834252771033287,-0.0004680626102196674,-0.00048485337834225817,-0.7629975216201454,0.0014288008906803576,0.004775909935474751,1.7806367493122837,0,70,255.0,255.0,255.0
74,3.7,2.999912855995546,-0.00010387954967737364,-5.870183183746562,-0.0003521442946202934,-0.00015852168439889564,-0.6743456382889798,0.0032079317332946193,0.00827735782225979,1.7654385839343578,0,70,255.0,255.0,255.0
75,3.75,2.9999,-0.0001,-5.9017,-0.00014726943689020652,0.00034288240388371784,-0.5864536632267102,0.0049870625759088835,0.011778805709044833,1.7502404185564346,0,70,255.0,255.0,255.0
76,3.8000000000000003,2.9999003181296047,-6.536283890453642e-05,-5.928897135416326,0.00018895008569352217,0.0010979947152342457,-0.5026768089900295,0.008461718327440193,0.018425686744976126,1.6008337509107755,0,70,255.0,255.0,255.0
77,3.85,2.9999217905550286,1.533853905336699e-05,-5.952092186455375,0.0006989023958538119,0.002185451078381329,-0.42637028813563244,0.01193637407897147,0.025072567780907357,1.4514270832651177,0,70,255.0,255.0,255.0
78,3.9000000000000004,2.99997310391565,0.00015872133646353993,-5.971658669786261,0.0013825874935906716,0.003605251493324986,-0.3575341006635177,0.015411029830502779,0.03171944881683865,1.3020204156194586,0,70,255.0,255.0,255.0
79,3.95,3.000062944850847,0.000381402755915808,-5.987970102078098,0.0022400053789040893,0.005357395960065193,-0.2961682465736864,0.018885685582034056,0.03836632985276988,1.1526137479738008,0,70,255.0,255.0,255.0
80,4.0,3.0002,0.0007,-6.0014,0.0032711560517940707,0.00744188447860196,-0.24227272586613807,0.02236034133356534,0.04501321088870105,1.0032070803281417,0,70,255.0,255.0,255.0
81,4.05,3.0003921758318195,0.0011302236658615934,-6.012306683761246,0.004429229272253481,0.009804320722274253,-0.19493575095071666,0.02396258748481121,0.04948423885819099,0.8902719162887216,0,70,255.0,255.0,255.0
82,4.1000000000000005,3.0006442581323514,0.0016841579288686742,-6.020987687731771,0.0056674148002752054,0.012390308364421088,-0.15324553423726553,0.025564833636057105,0.05395526682768101,0.7773367522492994,0,70,255.0,255.0,255.0
83,4.15,3.0009602525169736,0.002372980358944948,-6.027725349821672,0.006985712635859203,0.015199847405042377,-0.11720207572578621,0.02716707978730297,0.058426294797170944,0.6644015882098794,0,70,255.0,255.0,255.0
84,4.2,3.001344164601063,0.003207868526014148,-6.03280200794105,0.008384122779005493,0.018232937844138163,-0.08680537541627784,0.028769325938548838,0.06289732276666088,0.5514664241704592,0,70,255.0,255.0,255.0
85,4.25,3.0018,0.0042,-6.0365,0.009862645229714077,0.021489579681708445,-0.06205543330874048,0.030371572089794685,0.06736835073615083,0.438531260131039,0,70,255.0,255.0,255.0
86,4.3,3.0023333785431157,0.005361268175458151,-6.039109729538689,0.01151813282529132,0.0250127223956687,-0.04343618720710538,0.03584793173329525,0.07355735782225978,0.3062385839343674,0,70,255.0,255.0,255.0
87,4.3500000000000005,3.002956376915565,0.0067064297454719765,-6.040953862617541,0.013447438403043627,0.028845315463934467,-0.031431574915303684,0.04132429137679591,0.07974636490836885,0.17394590773769353,0,70,255.0,255.0,255.0
88,4.4,3.0036826860164565,0.0082509572277567,-6.042363130927049,0.01565056196297093,0.03298735888650562,-0.026041596433335822,0.04680065102029647,0.0859353719944778,0.04165323154102196,0,70,255.0,255.0,255.0
89,4.45,3.0045259967448987,0.010010323140027618,-6.043668266157706,0.018127503505073257,0.03743885266338222,-0.027266251761201496,0.05227701066379704,0.09212437908058677,-0.0906394446556496,0,70,255.0,255.0,255.0
90,4.5,3.0055,0.012,-6.0452,0.020878263029350613,0.04219979679456426,-0.03510554089890074,0.05775337030729771,0.09831338616669538,-0.22293212085232078,0,70,255.0,255.0,255.0
91,4.55,3.006615909995716,0.014235103632305771,-6.047271998084001,0.023754239426584004,0.04724878969505087,-0.04853550022086348,0.05728568558203839,0.10364632985276967,-0.3142662520261909,0,70,255.0,255.0,255.0
92,4.6000000000000005,3.0078750342053873,0.016729323089243513,-6.050129661798064,0.02660683158755448,0.05256442977984129,-0.06653216610152009,0.056818000856779065,0.10897927353884405,-0.40560038320006264,0,70,255.0,255.0,255.0
93,4.65,3.0092762034172007,0.019495990730028317,-6.05400132647013,0.029436039512261942,0.05814671704893533,-0.08909553854086988,0.05635031613151975,0.11431221722491836,-0.4969345143739328,0,70,255.0,255.0,255.0
94,4.7,3.0108182484193424,0.022548438913875417,-6.059115327428129,0.03224186320070644,0.06399565150233308,-0.11622561753891318,0.05588263140626043,0.11964516091099264,-0.588268645547803,0,70,255.0,255.0,255.0
95,4.75,3.0125,0.0259,-6.0657,0.035024302652887966,0.07011123314003455,-0.14792240309564997,0.055414946681001054,0.12497810459706671,-0.6796027767216724,0,70,255.0,255.0,255.0
96,4.800000000000001,3.0143197814740197,0.029558317295318777,-6.073900678125312,0.03775290946837636,0.07615211882412783,-0.17920581190943088,0.053729325938533225,0.11665732276666069,-0.5717335758295472,0,70,255.0,255.0,255.0
97,4.8500000000000005,3.0162738862628857,0.033508277897554145,-6.0835306901902,0.04039723524674132,0.0817769654167007,-0.2050957606786051,0.052043705196065417,0.10833654093625482,-0.46386437493742394,0,70,255.0,255.0,255.0
98,4.9,3.0183581003147415,0.03772907985213014,-6.094320363192429,0.04295727998798289,0.08698577291775327,-0.22559224940317313,0.050358084453597615,0.10001575910584895,-0.3559951740453007,0,70,255.0,255.0,255.0
99,4.95,3.020568209577732,0.04219992120447077,-6.106000024129773,0.04543304369210106,0.09177854132728555,-0.240695278083135,0.048672463711129814,0.09169497727544308,-0.24812597315317741,0,70,255.0,255.0,255.0
100,5.0,3.0229,0.0469,-6.1183,0.04782452635909585,0.09615527064529752,-0.2504048467184908,0.046986842968662124,0.08337419544503688,-0.1402567722610537,0,70,255.0,255.0,255.0
101,5.050000000000001,3.025349764108205,0.05181322718641939,-6.131006089414749,0.0501621226999077,0.10039873500843818,-0.2580492521414092,0.04651701066381054,0.08636437908058676,-0.16551944465567942,0,70,255.0,255.0,255.0
102,5.1000000000000005,3.02791582074307,0.05694236532054016,-6.144125977441136,0.052476227425476925,0.10479170855335625,-0.2669567911840588,0.046047178358958954,0.08935456271613659,-0.19078211705030465,0,70,255.0,255.0,255.0
103,5.15,3.0305969953238323,0.062294889861451264,-6.15772282076015,0.05476684053580358,0.1093341912800518,-0.2771274638464396,0.045577346054107376,0.09234474635168641,-0.2160447894449299,0,70,255.0,255.0,255.0
104,5.2,3.0333921132697297,0.0678782762682416,-6.171859776052775,0.057033962030887654,0.11402618318852485,-0.28856127012855165,0.0451075137492558,0.09533492998723624,-0.24130746183955515,0,70,255.0,255.0,255.0
105,5.25,3.0363,0.0737,-6.1866,0.05927759191072914,0.11886768427877538,-0.3012582100303951,0.04463768144440411,0.09832511362278573,-0.26657013423418086,0,70,255.0,255.0,255.0
106,5.300000000000001,3.03931956209316,0.07976557395900409,-6.201992564215694,0.06150259973199582,0.1237409411421199,-0.31437317952494404,0.04436263140626161,0.09660516091099232,-0.25802864554777033,0,70,255.0,255.0,255.0
107,5.3500000000000005,3.042450030764835,0.08607266082028557,-6.218030200045256,0.06371385505135532,0.12852820036987467,-0.3270610745851723,0.044087581368119105,0.09488520819919892,-0.24948715686135997,0,70,255.0,255.0,255.0
108,5.4,3.04569071838993,0.09261696070206502,-6.2346915537669725,0.06591135786880771,0.13322946196203975,-0.33932189521107997,0.04381253132997661,0.09316525548740553,-0.24094566817494958,0,70,255.0,255.0,255.0
109,5.45,3.0490409373433502,0.099394173722563,-6.251955271659126,0.06809510818435296,0.13784472591861519,-0.35115564140266714,0.04353748129183411,0.09144530277561215,-0.2324041794885392,0,70,255.0,255.0,255.0
110,5.5,3.0525,0.1064,-6.2698,0.07026510599799111,0.14237399223960095,-0.3625623131599338,0.04326243125369167,0.08972535006381888,-0.22386269080212884,0,70,255.0,255.0,255.0
111,5.550000000000001,3.0560671875191576,0.11363087697756477,-6.288208453722479,0.07241947837211138,0.14686150042308257,-0.3737860297588163,0.04291246371111772,0.0897749772754433,-0.22508597315316303,0,70,255.0,255.0,255.0
112,5.6000000000000005,3.0597416561975925,0.12108619139831801,-6.307179622377841,0.07455635236910291,0.15135148996714531,-0.38507091047525027,0.04256249616854377,0.08982460448706772,-0.2263092555041972,0,70,255.0,255.0,255.0
113,5.65,3.063522531116449,0.12876606733028892,-6.326716564171964,0.07667572798896574,0.15584396087178934,-0.39641695530923593,0.042212528625969824,0.08987423169869216,-0.22753253785523136,0,70,255.0,255.0,255.0
114,5.7,3.0674089373568703,0.13667062884150658,-6.346822337310724,0.07877760523169988,0.1603389131370145,-0.4078241642607733,0.04186256108339587,0.08992385891031658,-0.22875582020626553,0,70,255.0,255.0,255.0
115,5.75,3.0714,0.1448,-6.3675,0.08086198409730531,0.16483634676282097,-0.4192925373298623,0.04151259354082237,0.08997348612194078,-0.2299791025572966,0,70,255.0,255.0,255.0
116,5.800000000000001,3.075494887830212,0.15315411813073748,-6.38875122089439,0.08293148677955753,0.16932505716555044,-0.43073870143978454,0.04126751374926487,0.08957492998723535,-0.22786746183958584,0,70,255.0,255.0,255.0
117,5.8500000000000005,3.0796929444447962,0.1617321735864429,-6.41057211044338,0.08498873547223182,0.17379383976154456,-0.44207928351382103,0.04102243395770737,0.08917637385252991,-0.22575582112187512,0,70,255.0,255.0,255.0
118,5.9,3.083993557144275,0.1705331699767796,-6.432957389545174,0.08703373017532824,0.1782426945508034,-0.453314283551972,0.040777354166149866,0.08877781771782449,-0.2236441804041644,0,70,255.0,255.0,255.0
119,5.95,3.088396113229169,0.1795561109114109,-6.455901779097979,0.0890664708888468,0.18267162153332697,-0.46444370155423736,0.04053227437459237,0.08837926158311907,-0.22153253968645367,0,70,255.0,255.0,255.0
120,6.0,3.0929,0.1888,-6.4794,0.09108695761278748,0.1870806207091153,-0.4754675375206172,0.04028719458303498,0.08798070544841385,-0.21942089896874073,0,70,255.0,255.0,255.0
121,6.050000000000001,3.097504461159997,0.19826385049948608,-6.503447462699959,0.09308657450965903,0.19147027091471602,-0.4864271644820493,0.039697481291825945,0.08760530277561242,-0.21896417948853644,0,70,255.0,255.0,255.0
122,6.1000000000000005,3.1022081660232232,0.20794671425591105,-6.528042335848639,0.0950567057419701,0.1958411509866766,-0.497363955469471,0.039107768000616924,0.087229900102811,-0.21850746000833218,0,70,255.0,255.0,255.0
123,6.15,3.1070096403064515,0.217847652762593,-6.553183477647339,0.09699735130972072,0.2001932609249971,-0.5082779104828825,0.038518054709407896,0.08685449743000957,-0.21805074052812792,0,70,255.0,255.0,255.0
124,6.2,3.1119074097264527,0.22796572751284996,-6.57886974629736,0.09890851121291087,0.20452660072967752,-0.5191690295222836,0.03792834141819887,0.08647909475720814,-0.21759402104792364,0,70,255.0,255.0,255.0
125,6.25,3.1169,0.2383,-6.6051,0.1007901854515406,0.20884117040071787,-0.5300373125876746,0.03733862812698996,0.08610369208440716,-0.2171373015677167,0,70,255.0,255.0,255.0
126,6.300000000000001,3.121986467529801,0.24884967987131903,-6.6318725283057764,0.1026742151818005,0.21314585917558604,-0.5408486406320238,0.03802256108340497,0.08608385891031718,-0.21531582020624407,0,70,255.0,255.0,255.0
127,6.3500000000000005,3.12716799146231,0.2596145693899137,-6.659183346162068,0.10459244155988111,0.21744955629174964,-0.5515688946082992,0.03870649403981997,0.0860640257362272,-0.21349433884477145,0,70,255.0,255.0,255.0
128,6.4,3.1324462816299192,0.2705946189728488,-6.6870278998654715,0.10654486458578248,0.22175226174920873,-0.5621980745165008,0.03939042699623497,0.08604419256213722,-0.21167285748329884,0,70,255.0,255.0,255.0
129,6.45,3.1378230478650186,0.2817897790371894,-6.715401635712584,0.10853148425950461,0.2260539755479633,-0.572736180356629,0.04007435995264996,0.08602435938804724,-0.20985137612182622,0,70,255.0,255.0,255.0
130,6.5,3.1433,0.2932,-6.7443,0.11055230058104747,0.23035469768801342,-0.5831832121286833,0.040758292909064964,0.08600452621395682,-0.20802989476034917,0,70,255.0,255.0,255.0
131,6.550000000000001,3.1488784687207994,0.3048246300152388,-6.773719224076938,0.11258456476313915,0.23461829238294035,-0.5935862729898539,0.04053227437460098,0.08453926158311782,-0.20809253968646607,0,70,255.0,255.0,255.0
132,6.6000000000000005,3.1545582681275355,0.3166606081844351,-6.803658679503091,0.1146055280185076,0.23880862384632523,-0.6039924660973299,0.040306255840137,0.08307399695227885,-0.208155184612583,0,70,255.0,255.0,255.0
133,6.65,3.1603388331738715,0.3287042713460122,-6.834118522890775,0.11661519034715283,0.24292569207816822,-0.6144017914511121,0.040080237305673026,0.08160873232143986,-0.2082178295386999,0,70,255.0,255.0,255.0
134,6.7,3.1662195988134716,0.3409519563383928,-6.865098910852306,0.11861355174907488,0.2469694970784692,-0.6248142490511999,0.039854218771209045,0.08014346769060089,-0.20828047446481684,0,70,255.0,255.0,255.0
135,6.75,3.1722,0.3534,-6.8966,0.12060061222427373,0.25094003884722826,-0.6352298388975935,0.03962820023674518,0.07867820305976192,-0.20834311939092753,0,70,255.0,255.0,255.0
136,6.800000000000001,3.178279657587002,0.3660454000677269,-6.928620975386476,0.12258752576564683,0.25487697129265263,-0.6455902674085647,0.03984834141817744,0.0787990947572098,-0.2060740210479137,0,70,255.0,255.0,255.0
137,6.8500000000000005,3.1844589360275495,0.3788877978723466,-6.961157135825571,0.1245854463660915,0.25881994832294924,-0.655837241002385,0.04006848259960969,0.07891998645465766,-0.2038049227048999,0,70,255.0,255.0,255.0
138,6.9,3.190738385674596,0.391927495643103,-6.994202808571429,0.12659437402560778,0.2627689699381184,-0.6659707596790546,0.04028862378104194,0.07904087815210552,-0.20153582436188608,0,70,255.0,255.0,255.0
139,6.95,3.1971185568810947,0.40516479560923957,-7.02775232087819,0.1286143087441957,0.26672403613815976,-0.6759908234385736,0.0405087649624742,0.07916176984955339,-0.1992667260188723,0,70,255.0,255.0,255.0
140,7.0,3.2036,0.4186,-7.0618,0.13064525052185516,0.27068514692307366,-0.6858974322809417,0.04072890614390623,0.07928266154700125,-0.19699762767585582,0,70,255.0,255.0,255.0
141,7.050000000000001,3.210182900931193,0.4322329697138548,-7.096340874377161,0.13266533217426932,0.2746258224464499,-0.6957326573758837,0.040074359952658505,0.07834435938804683,-0.19641137612182183,0,70,255.0,255.0,255.0
142,7.1000000000000005,3.2168659877622674,0.44606180032617937,-7.131372777194627,0.13465268651712103,0.2785195828618784,-0.7055385698931239,0.03941981376141079,0.07740605722909243,-0.19582512456778786,0,70,255.0,255.0,255.0
143,7.15,3.223647624127746,0.4600841460815767,-7.166894242823512,0.13660731355041036,0.28236642816935914,-0.7153151698326624,0.03876526757016307,0.07646775507013803,-0.1952388730137539,0,70,255.0,255.0,255.0
144,7.2,3.230526173662149,0.4742976612246494,-7.202903805634931,0.13852921327413734,0.28616635836889215,-0.7250624571944994,0.03811072137891536,0.07552945291118363,-0.1946526214597199,0,70,255.0,255.0,255.0
145,7.25,3.2375,0.4887,-7.2394,0.14041838568830192,0.28991937346047747,-0.7347804319786344,0.037456175187668306,0.07459115075222922,-0.1940663699056877,0,70,255.0,255.0,255.0
146,7.300000000000001,3.244567938688226,0.5032891210768553,-7.276381127104881,0.14230314553727422,0.2936437389215482,-0.7444551030878975,0.03793421877122235,0.0743834676905994,-0.1929204744648338,0,70,255.0,255.0,255.0
147,7.3500000000000005,3.25173071292338,0.518064200822937,-7.313844555395923,0.14421180756542418,0.29735772022953744,-0.7540724794251179,0.03841226235477638,0.07417578462896958,-0.19177457902397987,0,70,255.0,255.0,255.0
148,7.4,3.2589895178144213,0.533024720030591,-7.351787420134524,0.14614437177275183,0.3010613173844452,-0.7636325609902955,0.038890305938330406,0.07396810156733977,-0.19062868358312599,0,70,255.0,255.0,255.0
149,7.45,3.266345548470308,0.5481701594921633,-7.390206856582084,0.1481008381592572,0.30475453038627137,-0.7731353477834304,0.03936834952188444,0.07376041850570995,-0.18948278814227207,0,70,255.0,255.0,255.0
150,7.5,3.2738,0.5635,-7.4291,0.1500812067249403,0.30843735923501614,-0.7825808398045226,0.03984639310543914,0.07355273544407925,-0.18833689270141818,0,70,255.0,255.0,255.0
151,7.550000000000001,3.2813533443159026,0.5790137459787251,-7.468464217203318,0.15204208567663785,0.312111221867357,-0.7919829302725299,0.03858876496246138,0.07340176984955472,-0.18774672601886308,0,70,255.0,255.0,255.0
152,7.6000000000000005,3.2890031605442114,0.5947109963820737,-7.508297801221685,0.15394008322118646,0.3157775362199716,-0.8013555124064091,0.03733113681948364,0.07325080425503021,-0.18715655933630798,0,70,255.0,255.0,255.0
153,7.65,3.296746304614569,0.6105913737960601,-7.548599276638391,0.1557751993585862,0.31943630229286,-0.8106985862061605,0.03607350867650591,0.07309983866050569,-0.18656639265375288,0,70,255.0,255.0,255.0
154,7.7,3.3045796324566177,0.6266545008066975,-7.589367168036731,0.15754743408883704,0.3230875200860222,-0.8200121516717843,0.03481588053352817,0.07294887306598116,-0.1859762259711978,0,70,255.0,255.0,255.0
155,7.75,3.3125,0.6429,-7.6306,0.159256787411939,0.32673118959945807,-0.8292962088032801,0.03355825239055088,0.07279790747145354,-0.18538605928864005,0,70,255.0,255.0,255.0
156,7.800000000000001,3.320505084048164,0.6593270950082457,-7.672295604081847,0.1609525117561757,0.330343373609024,-0.8385091758219891,0.034270721378916236,0.07168945291118217,-0.1831326214597128,0,70,255.0,255.0,255.0
157,7.8500000000000005,3.3285958448997746,0.675933413648769,-7.714449039717342,0.16268385954983064,0.33390013489057635,-0.8476094709492515,0.03498319036728158,0.07058099835091082,-0.1808791836307856,0,70,255.0,255.0,255.0
158,7.9,3.3367740637273036,0.6927161847851696,-7.757054673311914,0.16445083079290382,0.33740147344411503,-0.8565970941850676,0.03569565935564692,0.06947254379063947,-0.1786257458018584,0,70,255.0,255.0,255.0
159,7.95,3.345041521703222,0.7096726372810469,-7.800106871270991,0.16625342548539532,0.34084738926964026,-0.8654720455294374,0.03640812834401226,0.06836408923036812,-0.17637230797293116,0,70,255.0,255.0,255.0
160,8.0,3.3534,0.7268,-7.8436,0.16809164362730508,0.3442378823671518,-0.8742343249823608,0.037120597332377825,0.06725563467009632,-0.1741188701440084,0,70,255.0,255.0,255.0
161,8.05,3.361850319491443,0.7440962739882937,-7.887529366469298,0.1699078672986617,0.347619283696547,-0.882940366439518,0.035528349521885105,0.06800041850570883,-0.17412278814227555,0,70,255.0,255.0,255.0
162,8.1,3.370389459856691,0.7615625490228509,-7.93189403990895,0.17164447857949358,0.3510379242177226,-0.8916466037965882,0.03393610171139244,0.06874520234132131,-0.1741267061405427,0,70,255.0,255.0,255.0
163,8.15,3.3790134404762173,0.7792006870632621,-7.976694030113955,0.1733014774698009,0.3544938039306791,-0.9003530370535722,0.03234385390089972,0.0694899861769338,-0.17413062413880986,0,70,255.0,255.0,255.0
164,8.200000000000001,3.3877182807304957,0.7970125500691158,-8.021929346879308,0.1748788639695836,0.35798692283541617,-0.9090596662104695,0.030751606090407002,0.07023477001254631,-0.17413454213707702,0,70,255.0,255.0,255.0
165,8.25,3.3965,0.815,-8.0676,0.1763766380788416,0.36151728093193375,-0.9177664912672799,0.029159358279914782,0.07097955384815835,-0.17413846013534684,0,70,255.0,255.0,255.0
166,8.3,3.4053560379860643,0.8331638090385812,-8.113705330040967,0.17788001904917772,0.3650194916047873,-0.9264333584199436,0.030975880533528937,0.06910887306598183,-0.17253622597119306,0,70,255.0,255.0,255.0
167,8.35,3.414289515673462,0.8515003902598267,-8.160242000646857,0.17947422613219446,0.3684281682385319,-0.9350201138643991,0.03279240278714302,0.06723819228380538,-0.1709339918070393,0,70,255.0,255.0,255.0
168,8.4,3.4233049743678285,0.8700050669617825,-8.20720600623227,0.181159259327892,0.3717433108331678,-0.9435267576006475,0.03460892504075718,0.06536751150162885,-0.16933175764288552,0,70,255.0,255.0,255.0
169,8.450000000000001,3.432406955374797,0.8886731624424923,-8.254593341211788,0.18293511863627024,0.37496491938869486,-0.951953289628688,0.03642544729437133,0.06349683071945234,-0.1677295234787317,0,70,255.0,255.0,255.0
170,8.5,3.4416,0.9075,-8.3024,0.18480180405732913,0.3780929939051131,-0.9602997099485207,0.03824196954798498,0.06162614993727633,-0.16612728931457887,0,70,255.0,255.0,255.0
171,8.55,3.4508871285643004,0.926482089857383,-8.350622113366844,0.1866680565046291,0.38119874988430424,-0.9685741998807079,0.036408128344012185,0.06260408923036832,-0.16485230797290845,0,70,255.0,255.0,255.0
172,8.6,3.46026527744946,0.9456206899378411,-8.399256357503619,0.18844261689173034,0.3843534028281499,-0.9767849407458115,0.03457428714003946,0.06358202852346029,-0.16357732663123806,0,70,255.0,255.0,255.0
173,8.65,3.46972986205247,0.9649182450896087,-8.448299544956974,0.190125485218633,0.38755695273665025,-0.9849319325438317,0.032740445936066676,0.06455996781655227,-0.16230234528956763,0,70,255.0,255.0,255.0
174,8.700000000000001,3.47927629777032,0.9843772001609177,-8.497748488273551,0.19171666148533706,0.3908093996098052,-0.9930151752747685,0.030906604732093883,0.06553790710964427,-0.1610273639478972,0,70,255.0,255.0,255.0
175,8.75,3.4889,1.004,-8.5476,0.1932161456918424,0.3941107434476147,-1.0010346689386214,0.029072763528120715,0.06651584640273578,-0.15975238260622326,0,70,255.0,255.0,255.0
176,8.8,3.498597047756737,1.0237878315318887,-8.59785101649166,0.1946637549323055,0.3973855088579968,-1.0089978420572048,0.02883160609040307,0.06447477001254433,-0.1587745421371128,0,70,255.0,255.0,255.0
177,8.85,3.508366174528699,1.0437368499888078,-8.648498969338663,0.1960993063008827,0.40055822044886913,-1.0169121231523326,0.02859044865268543,0.06243369362235295,-0.1577967016680024,0,70,255.0,255.0,255.0
178,8.9,3.5182067774222934,1.0638419526797835,-8.699541413939835,0.19752279979757403,0.403628878220232,-1.024777512224005,0.028349291214967785,0.0603926172321615,-0.1568188611988919,0,70,255.0,255.0,255.0
179,8.950000000000001,3.5281182535439255,1.0840980369138395,-8.750975905694006,0.1989342354223795,0.40659748217208536,-1.0325940092722221,0.02810813377725014,0.05835154084197005,-0.15584102072978145,0,70,255.0,255.0,255.0
180,9.0,3.5381,1.1045,-8.8028,0.20033361317529905,0.409464032304429,-1.0403616142969832,0.027866976339531613,0.0563104644517769,-0.15486318026066748,0,70,255.0,255.0,255.0
181,9.05,3.548151880408754,1.125044184015065,-8.855011420666516,0.20174892376614686,0.4123152146837098,-1.048090431890469,0.028745447294380236,0.057736830719452854,-0.15428952347876326,0,70,255.0,255.0,255.0
182,9.1,3.558275624435744,1.1457327101069272,-8.907608565141729,0.20320815790473706,0.4152377153763743,-1.0557905666448595,0.029623918249228824,0.05916319698712876,-0.15371586669685905,0,70,255.0,255.0,255.0
183,9.15,3.568473428258357,1.1665691441912582,-8.960589999283682,0.20471131559106975,0.41823153438242266,-1.0634620185601549,0.030502389204077447,0.060589563254804725,-0.1531422099149548,0,70,255.0,255.0,255.0
184,9.200000000000001,3.5787474880539802,1.1875570521837264,-9.013954288950426,0.20625839682514485,0.42129667170185486,-1.071104787636355,0.03138086015892607,0.06201592952248068,-0.1525685531330506,0,70,255.0,255.0,255.0
185,9.25,3.5891,1.2087,-9.0677,0.20784940160696233,0.4244331273346707,-1.0787188738734599,0.032259331113774214,0.0634422957901557,-0.15199489635114283,0,70,255.0,255.0,255.0
186,9.3,3.5995322306082485,1.2300002324078547,-9.121824900842277,0.20942855000310884,0.42756163240716566,-1.086256430380935,0.0309066047320852,0.06169790710964047,-0.1495073639478537,0,70,255.0,255.0,255.0
187,9.35,3.6100417277283263,1.2514547095834827,-9.176323570094423,0.21094006208017085,0.4306029180456347,-1.0936696102682453,0.02955387835039623,0.059953518429125295,-0.14701983154456466,0,70,255.0,255.0,255.0
188,9.4,3.6206251095442807,1.2730590705551843,-9.231189788925432,0.21238393783814843,0.43355698425007816,-1.1009584135353914,0.02820115196870722,0.05820912974861007,-0.14453229914127552,0,70,255.0,255.0,255.0
189,9.450000000000001,3.6312789942401564,1.2948089543512573,-9.286417338504297,0.2137601772770416,0.4364238310204958,-1.108122840182373,0.026848425587018204,0.056464741068094834,-0.14204476673798638,0,70,255.0,255.0,255.0
190,9.5,3.642,1.3167,-9.342,0.21506878039685023,0.4392034583568876,-1.11516289020919,0.025495699205328126,0.05472035238757966,-0.13955723433469736,0,70,255.0,255.0,255.0
191,9.55,3.6527855971582537,1.3387284863535185,-9.397932975964375,0.2163608762214148,0.4419342556876264,-1.122163846585801,0.02618813377725405,0.054511540841969984,-0.14048102072974836,0,70,255.0,255.0,255.0
192,9.600000000000001,3.663636664650952,1.3608932515591419,-9.45421715448058,0.21768759377457567,0.44465461244108473,-1.129210992282165,0.026880568349179977,0.054302729296360305,-0.1414048071247994,0,70,255.0,255.0,255.0
193,9.65,3.674554933564522,1.3831937735880055,-9.51085484501459,0.2190489330563328,0.4473645286172624,-1.136304327298281,0.027573002921105875,0.05409391775075063,-0.14232859351985036,0,70,255.0,255.0,255.0
194,9.700000000000001,3.685542134985395,1.4056295304112467,-9.567848357032403,0.22044489406668627,0.4500640042161598,-1.14344385163415,0.0282654374930318,0.05388510620514095,-0.14325237991490136,0,70,255.0,255.0,255.0
195,9.75,3.6966,1.4282,-9.6252,0.221875476805636,0.45275303923777654,-1.1506295652897711,0.02895787206495748,0.05367629465953172,-0.14417616630995234,0,70,255.0,255.0,255.0
196,9.8,3.7077293807587357,1.450905022178073,-9.68291039530022,0.22328794511123312,0.455453344842327,-1.157760183275847,0.027540860158926275,0.054335929522485324,-0.141048553133076,0,70,255.0,255.0,255.0
197,9.850000000000001,3.7189276136678684,1.4737458841799524,-9.740973411983271,0.22462956282152866,0.45818663219002514,-1.164734420603079,0.02612384825289507,0.05499556438543893,-0.13792093995619964,0,70,255.0,255.0,255.0
198,9.9,3.730191156197634,1.4967242350927945,-9.799381231016211,0.2259003299365226,0.4609529012808709,-1.1715522772714668,0.024706836346863915,0.05565519924839251,-0.13479332677932337,0,70,255.0,255.0,255.0
199,9.950000000000001,3.741516465818266,1.5198417240037585,-9.858126033366105,0.22710024645621504,0.46375215211486437,-1.178213753281011,0.02328982444083271,0.056314834111346114,-0.13166571360244703,0,70,255.0,255.0,255.0
200,10.0,3.7529,1.5431,-9.9172,0.22822931238060587,0.4665843846920055,-1.1847188486317113,0.02187281253480111,0.05697446897430014,-0.12853810042557612,0,70,255.0,255.0,255.0
201,10.05,3.7643392798068036,1.5664994249341908,-9.976596642834748,0.22935134333365137,0.46937236494306545,-1.1911474203108012,0.02300842558701796,0.05454474106809487,-0.12860476673802096,0,70,255.0,255.0,255.0
202,10.100000000000001,3.7758360806775757,1.5900352117210519,-10.036314797586341,0.2305301549393077,0.4720388587988151,-1.1975793253055134,0.02414403863923481,0.0521150131618896,-0.12867143305046583,0,70,255.0,255.0,255.0
203,10.15,3.7873932416449447,1.613701286040817,-10.09635463092056,0.2317657471975748,0.47458386625925436,-1.204014563615848,0.02527965169145162,0.049685285255684414,-0.12873809936291067,0,70,255.0,255.0,255.0
204,10.200000000000001,3.7990136017415432,1.637491573573722,-10.156716309503187,0.23305812010845287,0.4770073873243835,-1.2104531352418046,0.026415264743668468,0.047255557349479144,-0.12880476567535554,0,70,255.0,255.0,255.0
205,10.25,3.8107,1.6614,-10.2174,0.2344072736719417,0.4793094219942023,-1.2168950401833836,0.02755087779588461,0.044825829443270404,-0.1288714319877986,0,70,255.0,255.0,255.0
206,10.3,3.8224543000140496,1.6854220780851652,-10.278405433360792,0.2357546815541645,0.4815851953854125,-1.2233141354809511,0.02634543749302745,0.04620510620513649,-0.12789237991490018,0,70,255.0,255.0,255.0
207,10.350000000000001,3.834274463621831,1.7095596689358434,-10.339730597671368,0.23704181742124447,0.483929932614716,-1.2296842781748738,0.025139997190170293,0.04758438296700258,-0.12691332784200174,0,70,255.0,255.0,255.0
208,10.4,3.846157477222588,1.733816220743938,-10.401373045301549,0.23826868127318154,0.48634363368211275,-1.2360054682651513,0.023934556887313177,0.04896365972886861,-0.12593427576910335,0,70,255.0,255.0,255.0
209,10.450000000000001,3.858100327215564,1.7581951817013561,-10.463330328621156,0.23943527310997578,0.48882629858760285,-1.242277705751784,0.02272911658445602,0.0503429364907347,-0.12495522369620493,0,70,255.0,255.0,255.0
210,10.5,3.8701,1.7827,-10.5256,0.24054159293162714,0.4913779273311861,-1.248500990634772,0.021523676281598014,0.0517222132525994,-0.12397617162330832,0,70,255.0,255.0,255.0
211,10.55,3.8821539201369997,1.8073330627251498,-10.588179223722095,0.24161393044968782,0.4939348535152848,-1.254652037765415,0.021369824440828286,0.050554834111347605,-0.1220657136024023,0,70,255.0,255.0,255.0
212,10.600000000000001,3.894261264835102,1.8320925125355783,-10.651063611728192,0.24267857537571,0.49643341074232095,-1.2607075619950123,0.021215972600058558,0.049387454970095813,-0.12015525558149628,0,70,255.0,255.0,255.0
213,10.65,3.9064216494647033,1.8569754309834308,-10.714248387873244,0.24373552770969367,0.49887359901229444,-1.2666675633235644,0.021062120759288837,0.04822007582884406,-0.11824479756059032,0,70,255.0,255.0,255.0
214,10.700000000000001,3.9186346893962036,1.8819788996208564,-10.777728776012198,0.24478478745163887,0.5012554183252054,-1.2725320417510713,0.02090826891851911,0.047052696687592266,-0.1163343395396843,0,70,255.0,255.0,255.0
215,10.75,3.9309,1.9071,-10.8415,0.24582635460154556,0.5035788686810536,-1.2783009972775325,0.020754417077750276,0.0458853175463414,-0.11442388151877303,0,70,255.0,255.0,255.0
216,10.8,3.943217219437952,1.9323360710142372,-10.905557671750842,0.2468615966470814,0.5058593905534492,-1.283997713457386,0.020655264743682265,0.04533555734948286,-0.11344476567535614,0,70,255.0,255.0,255.0
217,10.850000000000001,3.955586077037763,1.9576854809218482,-10.96989895541587,0.2478918810759138,0.508112424416002,-1.2896454738450684,0.020556112409614254,0.044785797152624325,-0.11246564983193924,0,70,255.0,255.0,255.0
218,10.9,3.968006324918598,1.98314685532234,-11.034521403205478,0.2489172078880428,0.5103379702687116,-1.2952442784405798,0.02045696007554625,0.044236036955765806,-0.11148653398852239,0,70,255.0,255.0,255.0
219,10.950000000000001,3.9804777151996222,2.008718819815222,-11.09942256733006,0.24993757708346845,0.5125360281115785,-1.3007941272439205,0.02035780774147824,0.04368627675890727,-0.1105074181451055,0,70,255.0,255.0,255.0
220,11.0,3.993,2.0344,-11.1646,0.2509529886621906,0.5147065979446025,-1.30629502025509,0.02025865540741023,0.043136516562047866,-0.10952830230169397,0,70,255.0,255.0,255.0
221,11.05,4.005573202111193,2.0601890532179037,-11.230051689274546,0.25197968296198714,0.5168515842709218,-1.3117731084050386,0.020809116584451465,0.04266293649072512,-0.10959522369624679,0,70,255.0,255.0,255.0
222,11.100000000000001,4.018198427013847,2.0860847637770337,-11.295777366608334,0.25303390032063583,0.5189728915936751,-1.3172545426247149,0.021359577761492703,0.042189356419402364,-0.10966214509079962,0,70,255.0,255.0,255.0
223,11.15,4.030877050860903,2.1120859477272114,-11.361777199304845,0.2541156407381364,0.521070519912862,-1.3227393229141187,0.02191003893853392,0.04171577634807963,-0.10972906648535244,0,70,255.0,255.0,255.0
224,11.200000000000001,4.043610449805308,2.13819142111826,-11.428051354667575,0.2552249042144892,0.523144469228483,-1.32822744927325,0.022460500115575155,0.04124219627675688,-0.10979598787990526,0,70,255.0,255.0,255.0
225,11.25,4.0564,2.1644,-11.4946,0.25636169074969395,0.5251947395405376,-1.3337189217021093,0.023010961292616372,0.04076861620543326,-0.10986290927446696,0,70,255.0,255.0,255.0
226,11.3,4.069245972117279,2.1907109161141523,-11.561421971150976,0.25745967150497234,0.5272462723628633,-1.3391338529224628,0.02090826891851944,0.04129269668759364,-0.10673433953967079,0,70,255.0,255.0,255.0
227,11.350000000000001,4.082144214906853,2.2171250639700224,-11.628510778150803,0.2584525176415459,0.5293240092092971,-1.3443923556560764,0.018805576544422505,0.04181677716975402,-0.10360576980487464,0,70,255.0,255.0,255.0
228,11.4,4.095089471637788,2.2436437537688168,-11.695858599575137,0.2593402291594146,0.5314279500798387,-1.34949442990295,0.016702884170325644,0.04234085765191438,-0.10047720007007858,0,70,255.0,255.0,255.0
229,11.450000000000001,4.108076485579149,2.270268295711741,-11.763457613999652,0.2601228060585785,0.5335580949744885,-1.3544400756630843,0.014600191796228712,0.042864938134074757,-0.09734863033528243,0,70,255.0,255.0,255.0
230,11.5,4.1211,2.297,-11.8313,0.2608002483390375,0.5357144438932461,-1.3592292929364784,0.012497499422130964,0.04338901861623601,-0.09422006060048638,0,70,255.0,255.0,255.0
231,11.55,4.134156509419697,2.3238392823254923,-11.899379626121553,0.26147763101812743,0.5378433262776247,-1.3639634799051175,0.01459780774146576,0.04176627675890871,-0.09514741814507241,0,70,255.0,255.0,255.0
232,11.600000000000001,4.147249513358746,2.350782980342882,-11.967697120788467,0.2622600291131841,0.539891071569137,-1.3687440347509858,0.016698116060800555,0.04014353490158142,-0.09607477568965844,0,70,255.0,255.0,255.0
233,11.65,4.160384262587947,2.377827037197525,-12.036254802394604,0.2631474426242074,0.5418576797677829,-1.3735709574740833,0.018798424380135275,0.03852079304425419,-0.09700213323424443,0,70,255.0,255.0,255.0
234,11.700000000000001,4.173566007878099,2.4049673960347797,-12.105054989333828,0.2641398715511976,0.5437431508735624,-1.3784442480744103,0.02089873269947007,0.03689805118692689,-0.09792949077883047,0,70,255.0,255.0,255.0
235,11.75,4.1868,2.4322,-12.1741,0.26523731589415445,0.5455474848864755,-1.383363906551966,0.0229990410188039,0.03527530932959966,-0.09885684832340402,0,70,255.0,255.0,255.0
236,11.8,4.200089590203938,2.4595215545838807,-12.243390724362818,0.26632580442251425,0.5473164225266346,-1.3882442274570497,0.02054050011558793,0.035482196276760726,-0.09635598787993725,0,70,255.0,255.0,255.0
237,11.850000000000001,4.213430531658166,2.4869318146584534,-12.312922338695335,0.2672913659057133,0.5490957045141516,-1.39299950533996,0.018081959212371965,0.035689083223921794,-0.09385512743647048,0,70,255.0,255.0,255.0
238,11.9,4.226816678010424,2.514431297441085,-12.382688590846444,0.26813400034375146,0.5508853308490267,-1.3976297402006967,0.015623418309156083,0.03589597017108286,-0.09135426699300381,0,70,255.0,255.0,255.0
239,11.950000000000001,4.240241882908455,2.5420205201491455,-12.452683228665038,0.26885370773662887,0.5526853015312599,-1.4021349320392602,0.013164877405940115,0.03610285711824393,-0.08885340654953702,0,70,255.0,255.0,255.0
240,12.0,4.2537,2.5697,-12.5229,0.2694504880843454,0.5544956165608511,-1.4065150808556504,0.010706336502722902,0.03630974406540499,-0.0863525461060668,0,70,255.0,255.0,255.0
241,12.05,4.267186729764552,2.5974696993389865,-12.593333476427178,0.27003515129181926,0.5562829836158382,-1.4108196102666848,0.012680191796232814,0.0351849381340754,-0.0858286303353104,0,70,255.0,255.0,255.0
242,12.100000000000001,4.280705160008594,2.6253273610233085,-12.663981524430195,0.27071850726396873,0.5580141103742587,-1.4150979438891815,0.014654047089742727,0.034060132202745806,-0.085304714564554,0,70,255.0,255.0,255.0
243,12.15,4.29426022537036,2.6532701730381363,-12.73484283421962,0.2715005560007936,0.5596889968361127,-1.4193500817231404,0.016627902383252572,0.03293532627141626,-0.08478079879379763,0,70,255.0,255.0,255.0
244,12.200000000000001,4.3078568604880845,2.681295323368644,-12.805916096006031,0.27238129750229395,0.5613076430014003,-1.4235760237685613,0.018601757676762483,0.03181052034008666,-0.08425688302304123,0,70,255.0,255.0,255.0
245,12.25,4.3215,2.7094,-12.8772,0.2733607317684698,0.5628700488701215,-1.427775770025444,0.02057561297027144,0.03068571440875978,-0.08373296725227952,0,70,255.0,255.0,255.0
246,12.3,4.3351930907378575,2.737582048060175,-12.948692969928475,0.2743495904102126,0.5644156430100136,-1.431933331476221,0.018978732699439924,0.031138051186923837,-0.08256949077879161,0,70,255.0,255.0,255.0
247,12.350000000000001,4.348933628307463,2.765841941248317,-13.020392363583897,0.2752586050384138,0.5659838539888139,-1.4360327191033235,0.017381852428608412,0.031590387965087896,-0.08140601430530371,0,70,255.0,255.0,255.0
248,12.4,4.36271762050814,2.7941808104063712,-13.092295272275079,0.27608777565307346,0.5675746818065224,-1.4400739329067513,0.015784972157776956,0.03204272474325194,-0.08024253783181584,0,70,255.0,255.0,255.0
249,12.450000000000001,4.376541075139212,2.822599786376285,-13.164398787310843,0.27683710225419156,0.569188126463139,-1.444056972886505,0.01418809188694544,0.032495061521416,-0.07907906135832794,0,70,255.0,255.0,255.0
250,12.5,4.3904,2.8511,-13.2367,0.27750658484176804,0.570824187958664,-1.4479818390425843,0.012591211616116205,0.032947398299580044,-0.07791558488484185,0,70,255.0,255.0,255.0
251,12.55,4.40429130728402,2.8796821084203166,-13.309196243858931,0.2781504870673203,0.5724544443441096,-1.4518630638284438,0.013164877405974282,0.0322628571182438,-0.07733340654952911,0,70,255.0,255.0,255.0
252,12.600000000000001,4.418215526761557,2.9083448739834274,-13.381885821234235,0.2788230725823655,0.5740504736704884,-1.4557151796975372,0.013738543195832358,0.03157831593690757,-0.07675122821421637,0,70,255.0,255.0,255.0
253,12.65,4.432174092597082,2.93708658533638,-13.454767276680071,0.2795243413869035,0.5756122759378003,-1.4595381866498651,0.014312208985690415,0.03089377475557135,-0.07616904987890365,0,70,255.0,255.0,255.0
254,12.700000000000001,4.446168438955072,2.965905531126223,-13.527839154750607,0.2802542934809345,0.5771398511460455,-1.4633320846854276,0.014885874775548492,0.030209233574235113,-0.07558687154359091,0,70,255.0,255.0,255.0
255,12.75,4.4602,2.9948,-13.6011,0.28101292886445844,0.5786331992952238,-1.4670968738042243,0.015459540565407881,0.029524692392900675,-0.07500469320827108,0,70,255.0,255.0,255.0
256,12.8,4.47426968012606,3.023767918258564,-13.674547654635813,0.2817684613205125,0.5800705796135485,-1.470790413210007,0.014761757676753796,0.027970520340080872,-0.07273688302302755,0,70,255.0,255.0,255.0
257,12.850000000000001,4.488376264646312,3.0528057628179783,-13.748177151479181,0.28248910463213384,0.581430251329232,-1.474370562106527,0.014063974788099712,0.026416348287261072,-0.07046907283778403,0,70,255.0,255.0,255.0
258,12.9,4.502518009103532,3.08190964824811,-13.821982821004644,0.28317485879932247,0.5827122144422745,-1.4778373204937851,0.013366191899445651,0.024862176234441324,-0.06820126265254059,0,70,255.0,255.0,255.0
259,12.950000000000001,4.5166931690405026,3.1110756891188283,-13.89595899368674,0.2838257238220784,0.5839164689526761,-1.4811906883717811,0.012668409010791568,0.023308004181621524,-0.06593345246729707,0,70,255.0,255.0,255.0
260,13.0,4.5309,3.1403,-13.9701,0.2844416997004016,0.5850430148604367,-1.484430665740515,0.011970626122138395,0.02175383212880444,-0.06366564228205895,0,70,255.0,255.0,255.0
261,13.05,4.545137172211741,3.16957981854543,-14.044401137597829,0.28504766765062844,0.5861592372016927,-1.4876152833315248,0.012268091886934144,0.022895061521430032,-0.06371906135833391,0,70,255.0,255.0,255.0
262,13.100000000000001,4.5594050146532,3.198916874744664,-14.11886157284905,0.28566850888909506,0.5873325210125798,-1.4908025718763487,0.012565557651729894,0.024036290914055625,-0.06377248043460888,0,70,255.0,255.0,255.0
263,13.15,4.573704270988788,3.228314021671182,-14.19348143930136,0.2863042234158014,0.5885628662930982,-1.4939925313749858,0.012863023416525635,0.025177520306681175,-0.06382589951088384,0,70,255.0,255.0,255.0
264,13.200000000000001,4.588035684882917,3.2577741123984674,-14.268260870502447,0.28695481123074756,0.5898502730432479,-1.497185161827437,0.013160489181321384,0.026318749699306768,-0.06387931858715881,0,70,255.0,255.0,255.0
265,13.25,4.6024,3.2873,-14.3432,0.28762027233393356,0.5911947412630288,-1.5003804632337019,0.013457954946117123,0.027459979091934095,-0.06393273766343555,0,70,255.0,255.0,255.0
266,13.3,4.616797631026976,3.316893607559718,-14.418298194972882,0.28828086807697534,0.5925404715796831,-1.503532453463878,0.01296587477555357,0.026369233574236425,-0.06214687154361795,0,70,255.0,255.0,255.0
267,13.350000000000001,4.63122767674089,3.3465531382033715,-14.493551757124623,0.2889168598114889,0.5938316646204526,-1.506595150388064,0.012473794604990016,0.025278488056538755,-0.06036100542380036,0,70,255.0,255.0,255.0
268,13.4,4.645688906941315,3.3762758650671647,-14.56895622178992,0.2895282475374743,0.595068320385337,-1.5095685540062584,0.011981714434426478,0.02418774253884112,-0.05857513930398282,0,70,255.0,255.0,255.0
269,13.450000000000001,4.660180091427828,3.4060590612873067,-14.644507124303484,0.2901150312549316,0.5962504388743367,-1.512452664318462,0.011489634263862925,0.02309699702114345,-0.056789273184165226,0,70,255.0,255.0,255.0
270,13.5,4.6747,3.4359,-14.7202,0.2906772109638606,0.5973780200874513,-1.515247481324675,0.010997554093299389,0.02200625150344404,-0.05500340706434237,0,70,255.0,255.0,255.0
271,13.55,4.689247503680358,3.4657961512157014,-14.79603088251065,0.291220860041463,0.5984628764795776,-1.5179829028129659,0.010748409010796408,0.0213880041816095,-0.05441345246728949,0,70,255.0,255.0,255.0
272,13.600000000000001,4.703821878383245,3.495745772441857,-14.871997798652467,0.29175205186494024,0.5995168205056124,-1.520688826571404,0.010499263928293427,0.020769756859774963,-0.05382349787023662,0,70,255.0,255.0,255.0
273,13.65,4.718422501245951,3.5257473180601613,-14.94809927353896,0.2922707864342924,0.6005398521655552,-1.5233652525999895,0.010250118845790456,0.020151509537940444,-0.05323354327318377,0,70,255.0,255.0,255.0
274,13.700000000000001,4.733048749405771,3.5557992424523106,-15.024333832283636,0.2927770637495193,0.6015319714594064,-1.5260121808987224,0.010000973763287475,0.019533262216105903,-0.05264358867613089,0,70,255.0,255.0,255.0
275,13.75,4.7477,3.5859,-15.1007,0.2932708838106211,0.6024931783871657,-1.5286296114676026,0.009751828680781838,0.0189150148942705,-0.05205363407907804,0,70,255.0,255.0,255.0
276,13.8,4.762375554251591,3.6160481875774786,-15.177195874984525,0.2937476917571739,0.6034320225020052,-1.5311919352842585,0.009320489181329255,0.01863874969930883,-0.050439318587158846,0,70,255.0,255.0,255.0
277,13.850000000000001,4.777074409726135,3.6462429720292056,-15.253817848265518,0.29420293272875403,0.6043570533570966,-1.5336735433263184,0.008889149681876672,0.018362484504347156,-0.04882500309523965,0,70,255.0,255.0,255.0
278,13.9,4.791795488074883,3.676483662692192,-15.330561884054246,0.29463660672536157,0.6052682709524398,-1.5360744355937823,0.008457810182424105,0.018086219309385497,-0.04721068760332051,0,70,255.0,255.0,255.0
279,13.950000000000001,4.8065377109490885,3.7067695689034537,-15.407423946561986,0.2950487137469964,0.6061656752880351,-1.5383946120866505,0.008026470682971522,0.017809954114423827,-0.045596372111401315,0,70,255.0,255.0,255.0
280,14.0,4.8213,3.7371,-15.4844,0.29543925379365865,0.6070492663638823,-1.5406340728049224,0.007595131183514958,0.017533688919461277,-0.0439820566194733,0,70,255.0,255.0,255.0
281,14.05,4.836081479313279,3.7674742984743865,-15.561486417551258,0.2958203729298429,0.6079210335123978,-1.5428173560500134,0.007649634263854033,0.017336997021155473,-0.043349273184158925,0,70,255.0,255.0,255.0
282,14.100000000000001,4.850882082712219,3.797891939441325,-15.638681208285476,0.29620421722004403,0.6087829660659979,-1.5449690001233383,0.007704137344193109,0.01714030512284967,-0.042716489748844545,0,70,255.0,255.0,255.0
283,14.15,4.865701946454517,3.82835243117107,-15.715982790244063,0.2965907866642622,0.6096350640246827,-1.5470890050248975,0.007758640424532182,0.016943613224543873,-0.04208370631353019,0,70,255.0,255.0,255.0
284,14.200000000000001,4.880541206797878,3.858855281933878,-15.793389581468434,0.2969800812624973,0.6104773273884524,-1.5491773707546914,0.007813143504871257,0.01674692132623807,-0.04145092287821582,0,70,255.0,255.0,255.0
285,14.25,4.8954,3.8894,-15.8709,0.29737210101474926,0.6113097561573064,-1.5512340973127192,0.007867646585208998,0.016550229427929608,-0.04081813944289436,0,70,255.0,255.0,255.0
286,14.3,4.910278528495294,3.9199858185249794,-15.948512054810456,0.2977708165234613,0.6121158434484071,-1.5532346405156932,0.00808097376327437,0.015693262216096557,-0.03920358867605882,0,70,255.0,255.0,255.0
287,14.350000000000001,4.925177259424996,3.9506108702054985,-16.026222118592596,0.2981801983910767,0.6128790823789161,-1.5551544561803252,0.008294300941339745,0.014836295004263509,-0.03758903790922328,0,70,255.0,255.0,255.0
288,14.4,4.940096726107049,3.9812730126235274,-16.104026154969517,0.2986002466175953,0.6135994729488334,-1.5569935443066152,0.00850762811940511,0.013979327792430489,-0.03597448714238779,0,70,255.0,255.0,255.0
289,14.450000000000001,4.955037461859403,4.011970103361039,-16.18192012756429,0.2990309612030172,0.6142770151581591,-1.5587519048945637,0.008720955297470483,0.013122360580597441,-0.03435993637555225,0,70,255.0,255.0,255.0
290,14.5,4.97,4.0427,-16.2599,0.29947234214734236,0.6149117090068932,-1.5604295379441704,0.00893428247553496,0.012265393368760868,-0.03274538560871143,0,70,255.0,255.0,255.0
291,14.55,4.984984406705548,4.073460827425699,-16.337962163206925,0.299896360976305,0.6155195926939724,-1.5620520818871757,0.008026470682969565,0.012049954114410963,-0.03215637211149661,0,70,255.0,255.0,255.0
292,14.600000000000001,4.999988879587804,4.1042517797366855,-16.416104717344137,0.30027498921563933,0.6161167044183343,-1.5636451751553202,0.007118658890404169,0.011834514860061056,-0.031567358614281796,0,70,255.0,255.0,255.0
293,14.65,5.015011149117284,4.135072318334821,-16.494326189877874,0.3006082268653454,0.6167030441799786,-1.5652088177486037,0.006210847097838805,0.011619075605711158,-0.030978345117067003,0,70,255.0,255.0,255.0
294,14.700000000000001,5.03004894576451,4.165921904621973,-16.572625108274416,0.3008960739254232,0.6172786119789054,-1.5667430096670267,0.00530303530527341,0.011403636351361253,-0.03038933161985219,0,70,255.0,255.0,255.0
295,14.75,5.0451,4.1968,-16.651,0.30113853039587274,0.6178434078151147,-1.5682477509105888,0.004395223512707158,0.01118819709701313,-0.029800318122632063,0,70,255.0,255.0,255.0
296,14.8,5.060162244682514,4.227706071772223,-16.72944889236183,0.30134773957131283,0.6183977857756968,-1.5696930319356106,0.003973143504896276,0.01098692132626837,-0.02801092287824429,0,70,255.0,255.0,255.0
297,14.850000000000001,5.075234422223792,4.258639610847761,-16.80796781203086,0.30153584474636236,0.6189420999477415,-1.5710488431984133,0.003551063497085393,0.01078564555552361,-0.026221527633856517,0,70,255.0,255.0,255.0
298,14.9,5.09031547742381,4.289600114037187,-16.88655228551897,0.30170284592102137,0.6194763503312491,-1.5723151846989962,0.0031289834892745255,0.010584369784778856,-0.024432132389468807,0,70,255.0,255.0,255.0
299,14.950000000000001,5.105404355082554,4.3205870781510765,-16.965197839338057,0.3018487430952898,0.6200005369262195,-1.5734920564373602,0.0027069034814636425,0.010383094014034096,-0.022642737145081034,0,70,255.0,255.0,255.0
300,15.0,5.1205,4.3516,-17.0439,0.3019735362691678,0.6205146597326524,-1.5745794584135044,0.002284823473653219,0.010181818243286678,-0.020853341900686218,0,70,255.0,255.0,255.0
301,15.05,5.135601814564394,4.382638085485412,-17.12265506734575,0.30210468073844576,0.6210012642032489,-1.575623790370407,0.0029609552974665925,0.00928236058056998,-0.0209199363754081,0,70,255.0,255.0,255.0
302,15.100000000000001,5.150711031517032,4.413699376872274,-17.201462434532438,0.3022696317989145,0.6214428957907094,-1.5766714520510452,0.0036370871212799663,0.008382902917853282,-0.020986530850129984,0,70,255.0,255.0,255.0
303,15.15,5.165829341187472,4.4447816255164305,-17.280322268046252,0.30246838945057375,0.6218395544950341,-1.5777224434554198,0.004313218945093316,0.007483445255136617,-0.021053125324851863,0,70,255.0,255.0,255.0
304,15.200000000000001,5.180958433905276,4.475882582773725,-17.359234734373377,0.3027009536934238,0.6221912403162231,-1.5787767645835304,0.00498935076890669,0.006583987592419918,-0.021119719799573746,0,70,255.0,255.0,255.0
305,15.25,5.1961,4.507,-17.4382,0.3029673245274645,0.622497953254276,-1.5798344154353772,0.0056654825927213714,0.005684529929698812,-0.021186314274284967,0,70,255.0,255.0,255.0
306,15.3,5.211255297059911,4.538131986286135,-17.517217238255174,0.30324153747491395,0.6227811574113025,-1.5808358065827328,0.005303035305256193,0.0056436363513576275,-0.01886933161994119,0,70,255.0,255.0,255.0
307,15.350000000000001,5.226423851708087,4.569278081663148,-17.596281649839394,0.30349762805799013,0.6230623168894118,-1.5817213485973713,0.004940588017791015,0.005602742773016443,-0.01655234896559741,0,70,255.0,255.0,255.0
308,15.4,5.2416047578263045,4.600438183897094,-17.67538744229603,0.303735596276693,0.623341431688604,-1.5824910414792928,0.00457814073032585,0.005561849194675261,-0.014235366311253711,0,70,255.0,255.0,255.0
309,15.450000000000001,5.2567971092963495,4.631612190754026,-17.754528823168446,0.3039554421310227,0.6236185018088793,-1.5831448852284966,0.004215693442860672,0.005520955616334077,-0.011918383656909932,0,70,255.0,255.0,255.0
310,15.5,5.272,4.6628,-17.8337,0.30415716562097905,0.6238935272502376,-1.5836828798449833,0.003853246155393286,0.005480062037995559,-0.009601401002560905,0,70,255.0,255.0,255.0
311,15.55,5.287212197195963,4.69400116937005,-17.91289597963356,0.3043211693619,0.6241461061515391,-1.5841529832986752,0.0027069034814461383,0.004623094014064387,-0.009202737145110612,0,70,255.0,255.0,255.0
312,15.600000000000001,5.302431161650629,4.725213896475134,-17.99211496610999,0.30442785596912364,0.6243558366516441,-1.5846031535594944,0.0015605608074989903,0.0037661259901332154,-0.008804073287660318,0,70,255.0,255.0,255.0
313,15.65,5.317654027507314,4.756436038895194,-18.07135596276963,0.30447722544264993,0.6245227187505524,-1.5850333906274412,0.00041421813355188315,0.0029091579662020744,-0.00840540943021004,0,70,255.0,255.0,255.0
314,15.700000000000001,5.332877928909332,4.787665454210169,-18.150617972952855,0.30446927778247884,0.6246467524482643,-1.5854436945025154,-0.0007321245403952648,0.0020521899422709026,-0.008006745572759747,0,70,255.0,255.0,255.0
315,15.75,5.3481,4.8189,-18.2299,0.30440401298861036,0.6247279377447795,-1.5858340651847171,-0.0018784672143437042,0.0011952219183379853,-0.007608081715305914,0,70,255.0,255.0,255.0
316,15.8,5.363318314156238,4.850137736233668,-18.309200443210585,0.3043377850774752,0.6247784179825479,-1.5861682602225866,-0.000770649231061855,0.0008239875923956977,-0.005759719799468472,0,70,255.0,255.0,255.0
317,15.850000000000001,5.3785347016894,4.881377532436318,-18.388515285720665,0.3043269480655042,0.6248103365040191,-1.586410037164664,0.0003371687522199943,0.0004527532664534101,-0.003911357883631031,0,70,255.0,255.0,255.0
318,15.9,5.3937519321444425,4.912618460522132,-18.467839906625453,0.3043715019526972,0.6248236933091933,-1.5865593960109494,0.0014449867355018045,8.15189405111356e-05,-0.002062995967793655,0,70,255.0,255.0,255.0
319,15.950000000000001,5.408972775066323,4.943859592405298,-18.547169685020165,0.30447144673905435,0.6248184883980702,-1.5866163367614432,0.002552804718783654,-0.0002897153854311519,-0.00021463405195621364,0,70,255.0,255.0,255.0
320,16.0,5.4242,4.9751,-18.6265,0.3046267824245756,0.6247947217706502,-1.5865808594161455,0.0036606227020663518,-0.0006609497113725382,0.0016337278638722808,0,70,255.0,255.0,255.0
321,16.05,5.439435346179081,5.00633908569528,-18.70582704752411,0.30477569032819884,0.6247722219182742,-1.5865019758109722,0.0022956934428646023,-0.00023904438366776872,0.0015216163430586945,0,70,255.0,255.0,255.0
322,16.1,5.45467643159177,5.037577573779602,-18.78515029100737,0.30485635176886205,0.6247708173322833,-1.5864286977818396,0.0009307641836628524,0.00018286094403700077,0.001409504822245108,0,70,255.0,255.0,255.0
323,16.150000000000002,5.469919843914918,5.068816519016282,-18.864470010728567,0.30486876674656516,0.624790508012678,-1.5863610253287477,-0.00043416507553889743,0.0006047662717417704,0.0012973933014315217,0,70,255.0,255.0,255.0
324,16.2,5.485162170825377,5.100056976168641,-18.943786486966506,0.30481293526130815,0.6248312939594576,-1.5862989584516964,-0.0017990943347405506,0.0010266715994465098,0.0011852817806179432,0,70,255.0,255.0,255.0
325,16.25,5.5004,5.1313,-19.0231,0.30468885731309114,0.6248931751726226,-1.586242497150686,-0.003164023593941856,0.001448576927149503,0.001073170259795475,0,70,255.0,255.0,255.0
326,16.3,5.515630701127435,5.162545920985214,-19.102409766692972,0.30454345360973234,0.6249326943443577,-1.586127836533511,-0.002652124540408877,0.00013218994225672534,0.003513254427214142,0,70,255.0,255.0,255.0
327,16.35,5.530854771943519,5.193792172445283,-19.18171075024988,0.30442364485905027,0.6249063941668482,-1.5858911717079647,-0.0021402254868758985,-0.0011841970426360524,0.005953338594632809,0,70,255.0,255.0,255.0
328,16.400000000000002,5.546073492195885,5.225035463412746,-19.260996850460298,0.30432943106104476,0.6248142746400941,-1.5855325026740477,-0.0016283264333429197,-0.00250058402752883,0.008393422762051477,0,70,255.0,255.0,255.0
329,16.45,5.561288141632168,5.256272502920138,-19.340261967113808,0.304260812215716,0.6246563357640953,-1.5850518294317595,-0.0011164273798099774,-0.003816971012421514,0.01083350692946997,0,70,255.0,255.0,255.0
330,16.5,5.5765,5.2875,-19.4195,0.30421778832306373,0.624432577538852,-1.5844491519811006,-0.0006045283262783308,-0.005133357997316068,0.013273591096895743,0,70,255.0,255.0,255.0
331,16.55,5.591709849311181,5.318714830363867,-19.498705885703995,0.3041704952328762,0.6241530007042836,-1.583786678054978,-0.0012871952812244832,-0.0060497153854172,0.013225365948012423,0,70,255.0,255.0,255.0
332,16.6,5.606916480634159,5.349914536439272,-19.577878707993126,0.3040890687949413,0.6238276060003103,-1.5831266153862993,-0.0019698622361706357,-0.006966072773518332,0.013177140799129104,0,70,255.0,255.0,255.0
333,16.650000000000002,5.622118187301547,5.381096827332743,-19.65701858743025,0.3039735090092591,0.6234563934269317,-1.582468963975065,-0.0026525291911167885,-0.007882430161619464,0.013128915650245786,0,70,255.0,255.0,255.0
334,16.7,5.6373132626459554,5.412259412150807,-19.73612564457825,0.3038238158758296,0.6230393629841483,-1.5818137238212746,-0.003335196146062892,-0.00879878754972053,0.01308069050136247,0,70,255.0,255.0,255.0
335,16.75,5.6525,5.4434,-19.8152,0.3036399893946528,0.6225765146719598,-1.5811608949249285,-0.004017863101009045,-0.009715144937818998,0.013032465352488032,0,70,255.0,255.0,255.0
336,16.8,5.667677101627842,5.474517157559316,-19.894241090491047,0.3034465654587592,0.6221193028385011,-1.5804694512466,-0.00371909433473538,-0.008573328400530917,0.014625281780651301,0,70,255.0,255.0,255.0
337,16.85,5.682844905519848,5.505612881797632,-19.97324561777764,0.30326807996117927,0.6217191818319067,-1.5796983667468634,-0.0034203255684617153,-0.007431511863242835,0.01621809820881457,0,70,255.0,255.0,255.0
338,16.900000000000002,5.698004158597933,5.536690027256289,-20.05220959981871,0.303104532901913,0.6213761516521767,-1.5788476414257184,-0.003121556802188051,-0.006289695325954754,0.01781091463697784,0,70,255.0,255.0,255.0
339,16.95,5.71315560778401,5.5677514484766295,-20.131129054573186,0.30295592428096046,0.6210902122993113,-1.5779172752831656,-0.0028227880359144074,-0.005147878788666754,0.019403731065140994,0,70,255.0,255.0,255.0
340,17.0,5.7283,5.5988,-20.21,0.3028222540983216,0.6208613637733102,-1.5769072683192042,-0.0025240192696398545,-0.004006062251377784,0.020996547493309592,0,70,255.0,255.0,255.0
341,17.05,5.74343774417745,5.629837339398867,-20.28881855233183,0.30268324293208543,0.6206177879417148,-1.5758235169586337,-0.0030364273798059466,-0.0057369710124355565,0.02235350692951352,0,70,255.0,255.0,255.0
342,17.1,5.758567897286451,5.660860336370204,-20.367581220896337,0.302518611360341,0.6202876666720667,-1.574671917626253,-0.003548835489972039,-0.007467879773493329,0.02371046636571745,0,70,255.0,255.0,255.0
343,17.150000000000002,5.773689178306727,5.691864663642108,-20.446284613294928,0.3023283593830882,0.6198709999643657,-1.5734524703220618,-0.004061243600138131,-0.0091987885345511,0.025067425801921374,0,70,255.0,255.0,255.0
344,17.2,5.788800306218,5.722845993942672,-20.52492533712901,0.30211248700032717,0.6193677878186116,-1.5721651750460608,-0.004573651710304187,-0.010929697295608751,0.026424385238125205,0,70,255.0,255.0,255.0
345,17.25,5.8039,5.7538,-20.6035,0.3018709942120578,0.6187780302348047,-1.5708100317982494,-0.005086059820469391,-0.012660606056670076,0.02778134467433624,0,70,255.0,255.0,255.0
346,17.3,5.818987121662358,5.784723084845214,-20.682005500181646,0.3016124628128946,0.6181455453946448,-1.5694044809188576,-0.0052551961460582525,-0.012638787549728647,0.028440690501333077,0,70,255.0,255.0,255.0
347,17.35,5.834061105334352,5.815614572721555,-20.76043989863703,0.301345474597452,0.6175141514798318,-1.5679659627481162,-0.005424332471647113,-0.012616969042787217,0.02910003632832991,0,70,255.0,255.0,255.0
348,17.400000000000002,5.849121528175166,5.846474518175288,-20.838801547001605,0.3010700295657299,0.616883848490366,-1.5664944772860245,-0.005593468797235975,-0.012595150535845789,0.029759382155326745,0,70,255.0,255.0,255.0
349,17.45,5.864167967343986,5.877302975752678,-20.917088796910775,0.3007861277177284,0.6162546364262472,-1.5649900245325836,-0.005762605122824824,-0.012573332028904361,0.030418727982323535,0,70,255.0,255.0,255.0
350,17.5,5.8792,5.9081,-20.9953,0.30049376905344743,0.6156265152874755,-1.5634526044877923,-0.0059317414484136854,-0.012551513521969149,0.031078073809323925,0,70,255.0,255.0,255.0
351,17.55,5.894216969173118,5.938865521220277,-21.073433046941606,0.30017890581633944,0.6149920304797095,-1.5618545593659314,-0.006662788035905287,-0.012827878788666251,0.032843731065112916,0,70,255.0,255.0,255.0
352,17.6,5.9092172813761445,5.969598972743583,-21.15148398455555,0.2998274902498569,0.6143437274086089,-1.5601682313812808,-0.007393834623396887,-0.013104244055363354,0.03460938832090191,0,70,255.0,255.0,255.0
353,17.650000000000002,5.924199108992615,6.00029966365675,-21.22944839869869,0.29943952235399973,0.6136816060741732,-1.5583936205338411,-0.008124881210888488,-0.013380609322060456,0.0363750455766909,0,70,255.0,255.0,255.0
354,17.7,5.939160624406054,6.03096690304661,-21.307321875227885,0.2990150021287681,0.6130056664764029,-1.556530726823612,-0.008855927798380037,-0.013656974588757538,0.038140702832479764,0,70,255.0,255.0,255.0
355,17.75,5.9541,6.0616,-21.3851,0.29855392957416177,0.6123159086152975,-1.5545795502505932,-0.00958697438587075,-0.01393333985545997,0.039906360088268755,0,70,255.0,255.0,255.0
356,17.8,5.969016201645175,6.0921980302736785,-21.46277911205194,0.2981039139217568,0.6115983326865205,-1.5525852816174324,-0.008413651710328623,-0.014769697295619201,0.03986438523816425,0,70,255.0,255.0,255.0
357,17.85,5.983911369161072,6.12275913630412,-21.54035856314079,0.29771256440312893,0.6108389388857356,-1.5505931117267768,-0.007240329034786497,-0.01560605473577843,0.03982241038805973,0,70,255.0,255.0,255.0
358,17.900000000000002,5.998788435854385,6.15328122719772,-21.617838458203664,0.2973798810182781,0.6100377272129427,-1.5486030405786264,-0.00606700635924437,-0.016442412175937664,0.039780435537955225,0,70,255.0,255.0,255.0
359,17.95,6.013650335031796,6.18376221206088,-21.69521890217769,0.2971058637672045,0.6091946976681418,-1.5466150681729813,-0.004893683683702327,-0.017278769616096833,0.03973846068785072,0,70,255.0,255.0,255.0
360,18.0,6.0285,6.2142,-21.7725,0.2968905126499079,0.6083098502513329,-1.5446291945098416,-0.0037203610081602,-0.018115127056260505,0.03969648583774443,0,70,255.0,255.0,255.0
361,18.05,6.043339024246188,6.244592757685009,-21.849680904850636,0.2966534384966333,0.607398638774204,-1.5425883141643388,-0.005762605122825034,-0.018333332028894138,0.04193872798236672,0,70,255.0,255.0,255.0
362,18.1,6.058163641979568,6.274939682039944,-21.926756962881317,0.29631425213762536,0.6064765170484434,-1.5404353217116047,-0.007804849237489866,-0.018551537001527767,0.044180970126989,0,70,255.0,255.0,255.0
363,18.150000000000002,6.072968747589854,6.305240227552376,-22.003722568486676,0.29587295357288423,0.6055434850740512,-1.5381702171516398,-0.009847093352154699,-0.0187697419741614,0.04642321227161129,0,70,255.0,255.0,255.0
364,18.2,6.087749235466761,6.335493848709871,-22.080572116061358,0.29532954280241,0.6045995428510273,-1.5357930004844438,-0.011889337466819387,-0.018987946946795016,0.04866545441623341,0,70,255.0,255.0,255.0
365,18.25,6.1025,6.3657,-22.1573,0.29468401982620235,0.6036446903793716,-1.5333036717100164,-0.013931581581485109,-0.01920615191943309,0.05090769656086103,0,70,255.0,255.0,255.0
366,18.3,6.117217301370077,6.3958581389862905,-22.23390126854552,0.2940183320917059,0.6026791122166667,-1.5307414617251853,-0.01269592779837108,-0.01941697458876366,0.051580702832381684,0,70,255.0,255.0,255.0
367,18.35,6.131902862920657,6.42596773553611,-22.310373585333963,0.2934144270463652,0.6017029929204952,-1.528145601426778,-0.011460274015257052,-0.019627797258094232,0.05225370910390234,0,70,255.0,255.0,255.0
368,18.400000000000002,6.1465597737861986,6.456028262592784,-22.38671526784964,0.2928723046901802,0.6007163324908573,-1.525516090814795,-0.010224620232143026,-0.019838619927424802,0.052926715375423004,0,70,255.0,255.0,255.0
369,18.45,6.161191123101161,6.486039193099637,-22.46292463357688,0.29239196502315096,0.5997191309277528,-1.522852929889236,-0.008988966449029086,-0.02004944259675536,0.05359972164694361,0,70,255.0,255.0,255.0
370,18.5,6.1758,6.516,-22.539,0.2919734080452773,0.5987113882311818,-1.5201561186501007,-0.007753312665916834,-0.02026026526608593,0.05427272791846072,0,70,255.0,255.0,255.0
371,18.55,6.190388570273507,6.545909886369831,-22.614939620967288,0.29156123313653703,0.597676912359127,-1.5174218389349423,-0.008733683683693908,-0.021118769616106384,0.05509846068787888,0,70,255.0,255.0,255.0
372,18.6,6.204955306337807,6.575766975815623,-22.690741495782856,0.29110003967690795,0.596599511269571,-1.5146462725813128,-0.009714054701470982,-0.021977273966126833,0.055924193457297044,0,70,255.0,255.0,255.0
373,18.650000000000002,6.2194977572653505,6.6055691220764965,-22.766403560114785,0.29058982766638997,0.5954791849625142,-1.5118294195892124,-0.010694425719248054,-0.022835778316147283,0.05674992622671521,0,70,255.0,255.0,255.0
374,18.7,6.234013472128596,6.635314178891581,-22.841923749631135,0.29003059710498313,0.5943159334379564,-1.5089712799586412,-0.011674796737025058,-0.023694282666167674,0.057575658996133317,0,70,255.0,255.0,255.0
375,18.75,6.2485,6.665,-22.9173,0.2894223479926874,0.5931097566958976,-1.5060718536895994,-0.012655167754804353,-0.02455278701618724,0.05840139176556036,0,70,255.0,255.0,255.0
376,18.8,6.262955617535894,6.694624715534387,-22.992529847585338,0.2888087353621468,0.5918772383468233,-1.5031071825350515,-0.011889337466820027,-0.024747946946784085,0.06018545441635157,0,70,255.0,255.0,255.0
377,18.85,6.277381511728121,6.724187561201408,-23.067609231534632,0.28823341424600535,0.5906349620012191,-1.5000533082479641,-0.011123507178835701,-0.02494310687738093,0.06196951706714278,0,70,255.0,255.0,255.0
378,18.900000000000002,6.291779597152402,6.753688049101235,-23.14253369169126,0.2876963846442632,0.5893829276590852,-1.496910230828337,-0.010357676890851375,-0.02513826680797778,0.063753579717934,0,70,255.0,255.0,255.0
379,18.95,6.3061517883844544,6.78312569133404,-23.217298767898587,0.28719764655692026,0.5881211353204214,-1.493677950276171,-0.009591846602867105,-0.025333426738574614,0.06553764236872507,0,70,255.0,255.0,255.0
380,19.0,6.3205,6.8125,-23.2919,0.28673719998397657,0.5868495849852277,-1.4903564665914648,-0.008826016314884111,-0.02552858666917235,0.06732170501951629,0,70,255.0,255.0,255.0
381,19.05,6.3348249595829165,6.841810451492622,-23.36633378869137,0.28624382541487836,0.5855661342535794,-1.4869974309248075,-0.010908966449042741,-0.025809442596758995,0.06703972164677267,0,70,255.0,255.0,255.0
382,19.1,6.349122646749709,6.871056379378753,-23.440599978078627,0.2856463033390723,0.5842686407255517,-1.4836524944267875,-0.012991916583201372,-0.02609029852434564,0.06675773827402906,0,70,255.0,255.0,255.0
383,19.150000000000002,6.363387854125045,6.900237081518572,-23.514699273120193,0.28494463375655826,0.5829571044011448,-1.4803216570974045,-0.015074866717360002,-0.026371154451932288,0.06647575490128545,0,70,255.0,255.0,255.0
384,19.200000000000003,6.377615374333588,6.9293518557722615,-23.588632378774513,0.28413881666733626,0.5816315252803584,-1.4770049189366588,-0.017157816851518633,-0.026652010379518937,0.06619377152854183,0,70,255.0,255.0,255.0
385,19.25,6.3918,6.9584,-23.6624,0.2832288520714064,0.5802919033631929,-1.4737022799445505,-0.019240766985677116,-0.026932866307109116,0.06591178815580179,0,70,255.0,255.0,255.0
386,19.3,6.405938144132442,6.987380678495127,-23.736001397649186,0.28231196297833916,0.5789302246388608,-1.4703270937657509,-0.017434796737012512,-0.027534282666176156,0.06909565899617864,0,70,255.0,255.0,255.0
387,19.35,6.4200327012730405,7.016292521283588,-23.809430056150877,0.2814853723977051,0.5775384750965752,-1.4667927140449324,-0.015628826488347906,-0.028135699025243193,0.0722795298365555,0,70,255.0,255.0,255.0
388,19.400000000000002,6.434088186347421,7.045134024824486,-23.88267801582798,0.2807490803295043,0.5761166547363364,-1.4630991407820955,-0.013822856239683302,-0.028737115384310234,0.07546340067693236,0,70,255.0,255.0,255.0
389,19.450000000000003,6.4481091142812,7.073903685576922,-23.95573731700339,0.2801030867737368,0.5746647635581442,-1.4592463739772392,-0.012016885991018697,-0.029338531743377274,0.07864727151730921,0,70,255.0,255.0,255.0
390,19.5,6.4621,7.1026,-24.0286,0.27954739173040255,0.5731828015619987,-1.4552344136303643,-0.010210915742352888,-0.02993994810244427,0.08183114235769118,0,70,255.0,255.0,255.0
391,19.55,6.476064063887318,7.131221234526874,-24.101259820711903,0.2790043226717717,0.5716569671909736,-1.4511661940122014,-0.01151184660287969,-0.031093426738561386,0.08089764236882607,0,70,255.0,255.0,255.0
392,19.6,6.489999348158127,7.159764735486902,-24.17371739731788,0.2783962070701146,0.5700734588881426,-1.4471446493934814,-0.012812777463406491,-0.0322469053746785,0.07996414237996097,0,70,255.0,255.0,255.0
393,19.650000000000002,6.5039026004852785,7.188227619183492,-24.24597506356791,0.27772304492543104,0.5684322766535056,-1.4431697797742051,-0.014113708323933294,-0.03340038401079562,0.07903064239109586,0,70,255.0,255.0,255.0
394,19.700000000000003,6.5177705685416205,7.216607001920057,-24.318035153211962,0.27698483623772124,0.5667334204870629,-1.4392415851543718,-0.015414639184460096,-0.034553862646912736,0.07809714240223074,0,70,255.0,255.0,255.0
395,19.75,6.5316,7.2449,-24.3899,0.2761815810069851,0.5649768903888145,-1.4353600655339824,-0.016715570044985917,-0.03570734128302977,0.07716364241337104,0,70,255.0,255.0,255.0
396,19.8,6.54538800031829,7.273104783397382,-24.46157051950322,0.27533474633457244,0.5632259065972507,-1.431440130185437,-0.01715781685151843,-0.034332010379519474,0.0796337715284459,0,70,255.0,255.0,255.0
397,19.85,6.559133106094452,7.301223736768812,-24.53304195457762,0.27446579932183324,0.5615436893508625,-1.4273966883811378,-0.017600063658050946,-0.03295667947600918,0.08210390064352076,0,70,255.0,255.0,255.0
398,19.900000000000002,6.572834211711469,7.329260298441555,-24.604308129900406,0.27357473996876736,0.5599302386496497,-1.4232297401210847,-0.018042310464583464,-0.03158134857249889,0.08457402975859563,0,70,255.0,255.0,255.0
399,19.950000000000003,6.5864902115523245,7.357217906742864,-24.6753628701488,0.27266156827537485,0.5583855544936125,-1.418939285405278,-0.01848455727111598,-0.030206017668988595,0.08704415887367048,0,70,255.0,255.0,255.0
400,20.0,6.6001,7.3851,-24.7462,0.2717262842416558,0.5569096368827511,-1.4145253242337177,-0.018926804077646686,-0.02883068676547751,0.0895142879887576,0,70,255.0,255.0,255.0
401,20.05,6.6136631348395225,7.412908431883608,-24.81681410127523,0.2708086919899395,0.555407406420029,-1.4100332852460649,-0.017776885991004028,-0.031258531743407085,0.09016727151735644,0,70,255.0,255.0,255.0
402,20.1,6.627181827464067,7.4406387174378565,-24.887202784371667,0.26994859564255536,0.5537837837084104,-1.4055085970819818,-0.016626967904361366,-0.033686376721336654,0.0908202550459553,0,70,255.0,255.0,255.0
403,20.150000000000002,6.6406589526688515,7.468284787050301,-24.957364416830494,0.26914599519950333,0.5520387687478951,-1.4009512597414693,-0.015477049817718708,-0.03611422169926623,0.09147323857455414,0,70,255.0,255.0,255.0
404,20.200000000000003,6.65409738524909,7.4958405711084986,-25.02729736619288,0.2684008906607835,0.5501723615384836,-1.3963612732245263,-0.01432713173107605,-0.0385420666771958,0.092126222103153,0,70,255.0,255.0,255.0
405,20.25,6.6675,7.5233,-25.097,0.26771328202639577,0.5481845620801757,-1.3917386375311538,-0.013177213644433472,-0.0409699116551252,0.09277920563176068,0,70,255.0,255.0,255.0
406,20.3,6.680868260323623,7.550658289068194,-25.166470675395864,0.26699848570567297,0.546152467722625,-1.387082728830303,-0.015414639184477106,-0.040313862646899415,0.09345714240226428,0,70,255.0,255.0,255.0
407,20.35,6.694197984049285,7.57791579347977,-25.235707707935727,0.26617181810794804,0.5441531758154857,-1.3823929232909273,-0.01765206472452074,-0.03965781363867363,0.09413507917276791,0,70,255.0,255.0,255.0
408,20.400000000000002,6.707483577613134,7.60507415335725,-25.30470940277765,0.2652332792332209,0.5421866863587577,-1.3776692209130261,-0.019889490264564377,-0.03900176463044784,0.09481301594327152,0,70,255.0,255.0,255.0
409,20.450000000000003,6.720719447451324,7.632135008823154,-25.37347406507972,0.2641828690814916,0.5402529993524409,-1.3729116216966,-0.02212691580460801,-0.03834571562222205,0.09549095271377514,0,70,255.0,255.0,255.0
410,20.5,6.7339,7.6591,-25.442,0.2630205876527601,0.5383521147965354,-1.3681201256416489,-0.024364341344652818,-0.03768966661399897,0.09616888948427516,0,70,255.0,255.0,255.0
411,20.55,6.747021423865988,7.68597041184362,-25.510284797141313,0.26185336518736607,0.5364627226894616,-1.3632517994327007,-0.02232455727110653,-0.037886017668953366,0.09856415887364636,0,70,255.0,255.0,255.0
412,20.6,6.760087036338799,7.712746108643068,-25.57832318388545,0.2607881319256494,0.5345635130296401,-1.3582637097542842,-0.020284773197560245,-0.03808236872390776,0.10095942826301758,0,70,255.0,255.0,255.0
413,20.650000000000002,6.773101936878615,7.739426599520706,-25.64610917205892,0.25982488786761004,0.5326544858170708,-1.353155856606399,-0.018244989124013955,-0.03827871977886216,0.10335469765238879,0,70,255.0,255.0,255.0
414,20.700000000000003,6.786071224945621,7.7660113935988955,-25.713636773488265,0.258963633013248,0.5307356410517537,-1.347928239989045,-0.016205205050467672,-0.03847507083381655,0.10574996704176001,0,70,255.0,255.0,255.0
415,20.75,6.799,7.7925,-25.7809,0.25820436736256336,0.5288069787336892,-1.342580859902223,-0.014165420976921972,-0.038671421888772706,0.1081452364311346,0,70,255.0,255.0,255.0
416,20.8,6.811891644212427,7.818891263557329,-25.847894136038878,0.2574440535448635,0.5268286415195392,-1.3371900734388666,-0.016247131731071847,-0.040462066677225496,0.1074862221031239,0,70,255.0,255.0,255.0
417,20.85,6.8247426705955245,7.845181371947965,-25.914619556522496,0.25657965418945616,0.5247607720659666,-1.3318322376919105,-0.018328842485221722,-0.04225271146567829,0.10682720777511319,0,70,255.0,255.0,255.0
418,20.900000000000002,6.837547874872411,7.871365848559936,-25.981077908986673,0.2556111692963413,0.5226033703729713,-1.326507352661355,-0.020410553239371597,-0.04404335625413108,0.10616819344710249,0,70,255.0,255.0,255.0
419,20.950000000000003,6.850302052766199,7.8974402167812725,-26.04727084096724,0.254538598865519,0.5203564364405534,-1.3212154183472,-0.022492263993521472,-0.04583400104258387,0.10550917911909177,0,70,255.0,255.0,255.0
420,21.0,6.863,7.9234,-26.1132,0.2533619428969892,0.5180199702687132,-1.315956434749446,-0.02457397474767209,-0.04762464583103565,0.10485016479108644,0,70,255.0,255.0,255.0
421,21.05,6.875637599284309,7.949242133927068,-26.17886585870318,0.2521464206331818,0.5156787112323816,-1.310659906811825,-0.02404691580462152,-0.04602571562222264,0.10701095271374722,0,70,255.0,255.0,255.0
422,21.1,6.888215081279105,7.974969203565079,-26.24426419002458,0.250957251316527,0.5134173987064908,-1.305255339478071,-0.02351985686157095,-0.04442678541340963,0.109171740636408,0,70,255.0,255.0,255.0
423,21.150000000000002,6.900733763631747,8.000585206239558,-26.30938959199439,0.24979443494702475,0.5112360326910407,-1.299742732748184,-0.02299279791852038,-0.04282785520459662,0.11133252855906876,0,70,255.0,255.0,255.0
424,21.200000000000003,6.913194963989594,8.026094139276026,-26.374236662642797,0.24865797152467498,0.509134613186031,-1.2941220866221639,-0.02246573897546981,-0.04122892499578361,0.11349331648172954,0,70,255.0,255.0,255.0
425,21.25,6.9256,8.0515,-26.4388,0.24754786104947782,0.5071131401914623,-1.2883934011000113,-0.021938680032419944,-0.0396299947869716,0.11565410440439727,0,70,255.0,255.0,255.0
426,21.3,6.937949958650343,8.076805000734405,-26.5030744291484,0.24645026392240552,0.5050645135509423,-1.2825702993138561,-0.02196520505047155,-0.042315070833825394,0.11726996704180445,0,70,255.0,255.0,255.0
427,21.35,6.950245004288059,8.102004213791723,-26.567055683379188,0.2453513405444306,0.5028816331080797,-1.2766664043958307,-0.021991730068523153,-0.04500014688067918,0.11888582967921164,0,70,255.0,255.0,255.0
428,21.400000000000002,6.9624850706006045,8.127090926481841,-26.630739723035784,0.24425109091555317,0.5005644988628742,-1.2706817163459347,-0.022018255086574758,-0.047685222927532966,0.12050169231661882,0,70,255.0,255.0,255.0
429,21.450000000000003,6.974670091275433,8.15205842611464,-26.69412250846159,0.24314951503577314,0.4981131108153263,-1.2646162351641685,-0.022044780104626363,-0.05037029897438676,0.12211755495402601,0,70,255.0,255.0,255.0
430,21.5,6.9868,8.1769,-26.7572,0.24204661290509058,0.4955274689654358,-1.2584699608505325,-0.022071305122677964,-0.053055375021239914,0.12373341759144729,0,70,255.0,255.0,255.0
431,21.55,6.9988745661143215,8.201610663135321,-26.819969224703232,0.24093252367718598,0.49291123456384056,-1.2523068959327681,-0.02249226399350453,-0.05159400104256935,0.12278917911912719,0,70,255.0,255.0,255.0
432,21.6,7.01089290156866,8.226192341268034,-26.882431476458674,0.2397973865057401,0.4903680688611788,-1.2461910429386196,-0.022913222864331097,-0.05013262706389879,0.1218449406468071,0,70,255.0,255.0,255.0
433,21.650000000000002,7.0228539539658374,8.250648687833088,-26.944589115862495,0.23864120139075287,0.4878979718574506,-1.2401224018680872,-0.023334181735157663,-0.04867125308522822,0.12090070217448701,0,70,255.0,255.0,255.0
434,21.700000000000003,7.034756670908677,8.274983356265428,-27.006444503510878,0.2374639683322243,0.48550094355265594,-1.2341009727211707,-0.02375514060598423,-0.047209879106557655,0.11995646370216692,0,70,255.0,255.0,255.0
435,21.75,7.0466,8.2992,-27.068,0.23626568733015452,0.4831769839467949,-1.2281267554978705,-0.024176099476810542,-0.045748505127887196,0.11901222522984867,0,70,255.0,255.0,255.0
436,21.8,7.0583829768923705,8.323301146724319,-27.12925587203867,0.2350516413688476,0.480858548193703,-1.22207411695508,-0.024385738975465546,-0.04698892499578832,0.12309331648177496,0,70,255.0,255.0,255.0
437,21.85,7.0701049894373025,8.347284821136148,-27.190204010786136,0.23382711343260792,0.47847809144721604,-1.2158174238496928,-0.02459537847412055,-0.048229344863689454,0.12717440773370126,0,70,255.0,255.0,255.0
438,21.900000000000002,7.081765513536049,8.371147922185818,-27.250834213514263,0.2325921035214355,0.476035613707334,-1.2093566761817096,-0.024805017972775553,-0.04946976473159058,0.13125549898562755,0,70,255.0,255.0,255.0
439,21.950000000000003,7.093364025089865,8.394887348823659,-27.31113627749493,0.23134661163533035,0.4735311149740569,-1.2026918739511299,-0.025014657471430557,-0.050710184599491705,0.13533659023755384,0,70,255.0,255.0,255.0
440,22.0,7.1049,8.4185,-27.3711,0.23009063777429253,0.470964595247385,-1.1958230171579547,-0.02522429697008488,-0.05195060446739319,0.13941768148947453,0,70,255.0,255.0,255.0
441,22.05,7.116372726316196,8.441983149967408,-27.43071768714209,0.22881291084742456,0.46835857266133973,-1.1889006362468697,-0.025884780104634384,-0.05229029897441624,0.13747755495392613,0,70,255.0,255.0,255.0
442,22.1,7.12778074068213,8.465335574187378,-27.4899916803968,0.22750215976382906,0.46573556534994326,-1.182075261662562,-0.026545263239183887,-0.0526299934814393,0.13553742841837776,0,70,255.0,255.0,255.0
443,22.150000000000002,7.139122391889967,8.488556423423645,-27.54892683008046,0.22615838452350612,0.46309557331319573,-1.1753468934050315,-0.02720574637373339,-0.05296968798846235,0.13359730188282937,0,70,255.0,255.0,255.0
444,22.200000000000003,7.150396028731869,8.511644848439943,-27.607527986509417,0.22478158512645569,0.460438596551097,-1.1687155314742788,-0.027866229508282894,-0.0533093824954854,0.131657175347281,0,70,255.0,255.0,255.0
445,22.25,7.1616,8.5346,-27.6658,0.22337176157267788,0.4577646350636473,-1.162181175870304,-0.02852671264283191,-0.053649077002509316,0.12971704881172386,0,70,255.0,255.0,255.0
446,22.3,7.172733317842846,8.557420653406052,-27.723745379392962,0.22196871524145725,0.45505116116092187,-1.1556033380574575,-0.027595140605992028,-0.05488987910650602,0.13339646370213606,0,70,255.0,255.0,255.0
447,22.35,7.183797647834177,8.580104082114339,-27.781357267626674,0.22061224751207864,0.4522756471529966,-1.1488415295000902,-0.026663568569152148,-0.05613068121050272,0.13707587859254824,0,70,255.0,255.0,255.0
448,22.400000000000002,7.1947953189040845,8.602647184119599,-27.8386264661639,0.219302358384542,0.44943809303987153,-1.1418957501982026,-0.025731996532312267,-0.05737148331449943,0.14075529348296045,0,70,255.0,255.0,255.0
449,22.450000000000003,7.205728659982662,8.625046857416574,-27.89554377646742,0.21803904785884737,0.4465384988215466,-1.1347660001517939,-0.024800424495472387,-0.05861228541849613,0.14443470837337266,0,70,255.0,255.0,255.0
450,22.5,7.2166,8.6473,-27.9521,0.2168223159349948,0.443576864498022,-1.1274522793608655,-0.023868852458633683,-0.059853087522491855,0.14811412326378104,0,70,255.0,255.0,255.0
451,22.55,7.227410802312421,8.669404636408382,-28.00828799528606,0.21560022818674318,0.440620782694972,-1.1200780115233275,-0.025014657471430564,-0.0583901845995072,0.14685659023772854,0,70,255.0,255.0,255.0
452,22.6,7.238159067981164,8.691363297355267,-28.064108849096524,0.2143208501878517,0.4377378460380712,-1.1127666203370925,-0.026160462484227442,-0.05692728167652255,0.14559905721167607,0,70,255.0,255.0,255.0
453,22.650000000000002,7.248841932493695,8.71317964009796,-28.11956570526396,0.2129841819383204,0.4349280545273197,-1.10551810580216,-0.02730626749702432,-0.055464378753537893,0.14434152418562357,0,70,255.0,255.0,255.0
454,22.700000000000003,7.259456531337485,8.734857321893768,-28.17466170762093,0.21159022343814923,0.4321914081627174,-1.0983324679185298,-0.0284520725098212,-0.054001475830553244,0.14308399115957107,0,70,255.0,255.0,255.0
455,22.75,7.27,8.7564,-28.2294,0.21013897468733833,0.42952790694426446,-1.091209706686203,-0.029597877522617555,-0.05253857290756869,0.14182645813352224,0,70,255.0,255.0,255.0
456,22.8,7.280469872907469,8.777809600960417,-28.283781839462804,0.20865437201156636,0.4268337080591882,-1.0840366158491854,-0.029786229508260757,-0.055229382495481476,0.1450971753471791,0,70,255.0,255.0,255.0
457,22.85,7.290865280241168,8.799081128464595,-28.337800935987243,0.2071603517365122,0.4240049686947162,-1.0766999891514848,-0.029974581493903956,-0.05792019208339426,0.14836789256083602,0,70,255.0,255.0,255.0
458,22.900000000000002,7.301185751121133,8.820207855488567,-28.391449112780275,0.2056569138621759,0.4210416888508487,-1.0691998265931015,-0.03016293347954716,-0.06061100167130704,0.1516386097744929,0,70,255.0,255.0,255.0
459,22.950000000000003,7.311430814667398,8.841183055008358,-28.444718193048875,0.20414405838855745,0.4179438685275854,-1.0615361281740354,-0.030351285465190357,-0.06330181125921983,0.15490932698814977,0,70,255.0,255.0,255.0
460,23.0,7.3216,8.862,-28.4976,0.20262178531565694,0.4147115077249268,-1.0537088938942867,-0.0305396374508331,-0.0659926208471342,0.15818004420181886,0,70,255.0,255.0,255.0
461,23.05,7.3316929060577,8.882653759749951,-28.550087846862723,0.20109428376699875,0.4114523850682855,-1.045807525079909,-0.03056042449549361,-0.06437228541851707,0.1578747083732747,0,70,255.0,255.0,255.0
462,23.1,7.341709411054163,8.903146588786353,-28.602181006954513,0.19956574286610754,0.408274279183075,-1.037921423056959,-0.03058121154015412,-0.06275194998989994,0.1575693725447305,0,70,255.0,255.0,255.0
463,23.150000000000002,7.351649463021775,8.92348253794778,-28.653880243614942,0.1980361626129833,0.4051771900692954,-1.0300505878254358,-0.03060199858481463,-0.06113161456128282,0.15726403671618633,0,70,255.0,255.0,255.0
464,23.200000000000003,7.361513009992925,8.943665658072808,-28.705186320183582,0.19650554300762604,0.4021611177269467,-1.0221950193853402,-0.03062278562947514,-0.05951127913266569,0.15695870088764216,0,70,255.0,255.0,255.0
465,23.25,7.3713,8.9637,-28.7561,0.19497388405003585,0.39922606215602896,-1.014354717736672,-0.030643572674134756,-0.05789094370404957,0.156653365059098,0,70,255.0,255.0,255.0
466,23.3,7.381010502861727,8.983588160039785,-28.806621173086302,0.19344849292043706,0.39628475166766414,-1.0064772838312028,-0.030372072509816214,-0.05976147583053993,0.15844399115967076,0,70,255.0,255.0,255.0
467,23.35,7.39064507554218,9.003326916389993,-28.856746236194706,0.19193667679905418,0.39324991457297487,-0.9985103186207047,-0.03010057234549767,-0.061632007957030284,0.1602346172602435,0,70,255.0,255.0,255.0
468,23.400000000000002,7.40020439679177,9.02291159272031,-28.906470712759955,0.19043843568588725,0.39012155087196104,-0.9904538221051782,-0.02982907218117913,-0.06350254008352064,0.16202524336081625,0,70,255.0,255.0,255.0
469,23.450000000000003,7.409689145360907,9.04233751270042,-28.955790126216808,0.1889537695809362,0.3868996605646227,-0.9823077942846229,-0.029557572016860587,-0.065373072210011,0.16381586946138899,0,70,255.0,255.0,255.0
470,23.5,7.4191,9.0616,-29.0047,0.18748267848420128,0.3835842436509601,-0.9740722351590396,-0.029286071852542284,-0.06724360433650123,0.16560649556196516,0,70,255.0,255.0,255.0
471,23.55,7.42843708249539,9.080695200090911,-29.053196260792074,0.18599174455125791,0.38022460826106724,-0.9657713395952854,-0.030351285465190586,-0.06714181125921126,0.16642932698819843,0,70,255.0,255.0,255.0
472,23.6,7.437698286777116,9.099622545653672,-29.101276448266674,0.1844475499376822,0.3768700625250389,-0.9574293024602195,-0.03141649907783889,-0.06704001818192129,0.1672521584144317,0,70,255.0,255.0,255.0
473,23.650000000000002,7.446880949811147,9.118382291170978,-29.148938505345242,0.18285009464347401,0.37352060644287505,-0.949046123753842,-0.032481712690487184,-0.06693822510463132,0.16807498984066493,0,70,255.0,255.0,255.0
474,23.700000000000003,7.455982408563453,9.136974691125525,-29.196180374949204,0.18119937866863342,0.37017624001457566,-0.9406218034761529,-0.03354692630313549,-0.06683643202734135,0.1688978212668982,0,70,255.0,255.0,255.0
475,23.75,7.465,9.1554,-29.243,0.17949540201316055,0.36683696324014103,-0.9321563416271524,-0.03461213991578438,-0.06673463895005316,0.16972065269313585,0,70,255.0,255.0,255.0
476,23.8,7.473931567156716,9.173658239596577,-29.28939538374541,0.17776852887452882,0.3634888152880717,-0.9236533577876354,-0.03446278562948324,-0.06719127913271716,0.17039870088754316,0,70,255.0,255.0,255.0
477,23.85,7.482776977349358,9.191748500995322,-29.3353647707386,0.1760491234502122,0.36011783532686925,-0.9151164715383979,-0.03431343134318209,-0.06764791931538118,0.1710767490819505,0,70,255.0,255.0,255.0
478,23.900000000000002,7.491536603963643,9.209669642595777,-29.38090646585909,0.1743371857402106,0.3567240233565335,-0.9065456828794402,-0.03416407705688095,-0.06810455949804518,0.1717547972763578,0,70,255.0,255.0,255.0
479,23.950000000000003,7.500210820385285,9.227420522797491,-29.426018773986385,0.17263271574452402,0.3533073793770646,-0.8979409918107618,-0.03401472277057981,-0.0685611996807092,0.17243284547076512,0,70,255.0,255.0,255.0
480,24.0,7.5088,9.245,-29.4707,0.17093571346315264,0.3498679033884627,-0.8893023983323639,-0.033865368484279346,-0.06901783986337451,0.17311089366517596,0,70,255.0,255.0,255.0
481,24.05,7.517304648877747,9.262407041522781,-29.514947804226292,0.16925413995062477,0.34641213058662906,-0.8805912292541986,-0.03339757201683455,-0.06921307220996775,0.17533586946143223,0,70,255.0,255.0,255.0
482,24.1,7.525725803825452,9.27964105036504,-29.558757268778926,0.16759595626146914,0.3429465961674658,-0.8717688113862204,-0.03292977554938975,-0.069408304556561,0.1775608452576885,0,70,255.0,255.0,255.0
483,24.150000000000002,7.5340646343342845,9.296701538445905,-29.602122831218416,0.16596116239568573,0.3394713001309729,-0.8628351447284295,-0.03246197908194495,-0.06960353690315425,0.17978582105394478,0,70,255.0,255.0,255.0
484,24.200000000000003,7.54232230989541,9.313588017684514,-29.645038929105272,0.16434975835327462,0.33598624247715025,-0.8537902292808257,-0.03199418261450015,-0.0697987692497475,0.18201079685020108,0,70,255.0,255.0,255.0
485,24.25,7.5505,9.3303,-29.6875,0.1627617441342358,0.3324914232059983,-0.8446340650434098,-0.03152638614705583,-0.06999400159633984,0.18423577264645896,0,70,255.0,255.0,255.0
486,24.3,7.558597837332297,9.34683679431229,-29.729501399349434,0.16113491132298016,0.32897466236540646,-0.8354217251955748,-0.03354692630316974,-0.07067643202733251,0.18425782126693288,0,70,255.0,255.0,255.0
487,24.35,7.566611807348836,9.363196897544515,-29.771042154145707,0.1594070515039188,0.32542378000326494,-0.8262082829167162,-0.03556746645928365,-0.07135886245832516,0.1842798698874068,0,70,255.0,255.0,255.0
488,24.400000000000002,7.574536858699226,9.379378603620593,-29.81212220926726,0.15757816467705174,0.32183877611957384,-0.8169937382068339,-0.03758800661539756,-0.07204129288931782,0.18430191850788075,0,70,255.0,255.0,255.0
489,24.450000000000003,7.582367940033077,9.395380206464447,-29.85274150959254,0.15564825084237896,0.31821965071433306,-0.8077780910659279,-0.03960854677151147,-0.07272372332031049,0.18432396712835467,0,70,255.0,255.0,255.0
490,24.5,7.5901,9.4112,-29.8929,0.1536173099999007,0.31456640378754297,-0.7985613414939987,-0.041629086927625014,-0.07340615375130444,0.18434601574882947,0,70,255.0,255.0,255.0
491,24.55,7.597729601793067,9.42683618122805,-29.932596998375963,0.15158221475744588,0.3108732199517429,-0.7893058699635094,-0.03977472277056673,-0.07432119968069754,0.18587284547073468,0,70,255.0,255.0,255.0
492,24.6,7.605259766779209,9.4422865594569,-29.971829314638253,0.14963983772284398,0.3071342838194731,-0.779974056946925,-0.03792035861350843,-0.07523624561009064,0.1873996751926399,0,70,255.0,255.0,255.0
493,24.650000000000002,7.612695130868816,9.457548847071724,-30.010593131712557,0.147790178896095,0.3033495953907337,-0.7705659024442452,-0.036065994456450146,-0.07615129153948375,0.1889265049145451,0,70,255.0,255.0,255.0
494,24.700000000000003,7.620040329972283,9.4726207564577,-30.048884632524576,0.1460332382771989,0.2995191546655246,-0.7610814064554703,-0.03421163029939185,-0.07706633746887684,0.1904533346364503,0,70,255.0,255.0,255.0
495,24.75,7.6273,9.4875,-30.0867,0.1443690158661559,0.2956429616438461,-0.7515205689806007,-0.03235726614233392,-0.07798138339827121,0.19198016435835452,0,70,255.0,255.0,255.0
496,24.8,7.634477355495433,9.502184880775506,-30.12403540714671,0.14271222964723554,0.29175645782764437,-0.7418827949503857,-0.033914182614479114,-0.07747876924979744,0.19353079685024305,0,70,255.0,255.0,255.0
497,24.85,7.64156992553433,9.51667606462789,-30.1608869873013,0.14097759760470793,0.28789508471886627,-0.7321674892955761,-0.03547109908662431,-0.07697615510132366,0.19508142934213155,0,70,255.0,255.0,255.0
498,24.900000000000002,7.64857381782551,9.530974808092518,-30.197250863882527,0.13916511973857307,0.2840588423175119,-0.7223746520161722,-0.037028015558769514,-0.07647354095284989,0.19663206183402007,0,70,255.0,255.0,255.0
499,24.950000000000003,7.655485140077794,9.545082367704765,-30.23312316030917,0.13727479604883092,0.28024773062358116,-0.7125042831121738,-0.03858493203091471,-0.07597092680437612,0.19818269432590857,0,70,255.0,255.0,255.0
500,25.0,7.6623,9.559,-30.2685,0.13530662653548164,0.2764617496370744,-0.7025563825835818,-0.04014184850306002,-0.07546831265590237,0.19973332681779699,0,70,255.0,255.0,255.0
501,25.05,7.6690153762252,9.572728295669922,-30.303378173037196,0.13331286665361647,0.2726609487376693,-0.6925709502349288,-0.03960854677154514,-0.07656372332030152,0.19968396712831993,0,70,255.0,255.0,255.0
502,25.1,7.675631731083472,9.586265182031546,-30.33775713615657,0.13134577185832708,0.26880537730504417,-0.6825879858707494,-0.039075245040030265,-0.07765913398470066,0.19963460743884287,0,70,255.0,255.0,255.0
503,25.150000000000002,7.682150397829144,9.599607920558208,-30.371637012757343,0.1294053421496134,0.2648950353391991,-0.6726074894910441,-0.03854194330851539,-0.07875454464909981,0.1995852477493658,0,70,255.0,255.0,255.0
504,25.200000000000003,7.688572709716542,9.612753772723247,-30.40501792623875,0.1274915775274755,0.2609299228401341,-0.6626294610958127,-0.03800864157700051,-0.07984995531349896,0.19953588805988876,0,70,255.0,255.0,255.0
505,25.25,7.6949,9.6257,-30.4379,0.1256044779919134,0.2569100398078494,-0.6526539006850557,-0.0374753398454859,-0.08094536597789714,0.19948652837040992,0,70,255.0,255.0,255.0
506,25.3,7.701133139603766,9.638444336544799,-30.47028230070451,0.1237163037382921,0.25286374722168103,-0.6426174041098848,-0.038051630299365834,-0.08090633746883417,0.2019733346364218,0,70,255.0,255.0,255.0
507,25.35,7.707271150131784,9.650986407245925,-30.502159668072434,0.12179931496197677,0.24881940606096584,-0.6324565672214132,-0.03862792075324577,-0.0808673089597712,0.2044601409024337,0,70,255.0,255.0,255.0
508,25.400000000000002,7.713312590857919,9.663326309674654,-30.5335258850881,0.11985351166296745,0.2447770163257038,-0.6221713900196412,-0.039204211207125694,-0.08082828045070824,0.20694694716844558,0,70,255.0,255.0,255.0
509,25.450000000000003,7.719256021056036,9.675464141402255,-30.564374734735843,0.11787889384126414,0.2407365780158949,-0.6117618725045684,-0.03978050166100563,-0.08078925194164528,0.20943375343445747,0,70,255.0,255.0,255.0
510,25.5,7.7251,9.6874,-30.5947,0.11587546149686698,0.23669809113153947,-0.6012280146761957,-0.040356792114886186,-0.08075022343258254,0.21192055970047363,0,70,255.0,255.0,255.0
511,25.55,7.730843265359736,9.699133558150882,-30.624496624144758,0.1138539183932216,0.23263606237561407,-0.590639433325535,-0.04050493203092764,-0.08173092680443134,0.21162269432594696,0,70,255.0,255.0,255.0
512,25.6,7.7364852683893925,9.710662788984752,-30.6537641915537,0.11182496829377415,0.22852499845109622,-0.5800657452436007,-0.040653071946969106,-0.08271163017628014,0.21132482895142032,0,70,255.0,255.0,255.0
513,25.650000000000002,7.742025638739183,9.72198524074318,-30.682503446890262,0.10978861119852464,0.22436489935798593,-0.5695069504303927,-0.04080121186301056,-0.08369233354812895,0.21102696357689366,0,70,255.0,255.0,255.0
514,25.700000000000003,7.747464006059316,9.73309846166774,-30.710715134817885,0.10774484710747305,0.2201557650962832,-0.5589630488859111,-0.04094935177905202,-0.08467303691997775,0.21072909820236702,0,70,255.0,255.0,255.0
515,25.75,7.7528,9.744,-30.7384,0.10569367602061952,0.21589759566598837,-0.5484340406101563,-0.04109749169509347,-0.08565374029182538,0.21043123282784126,0,70,255.0,255.0,255.0
516,25.8,7.758032998957295,9.754687830851674,-30.76555760271646,0.10362002268881694,0.21161600327585556,-0.5378488625879638,-0.04184864157700875,-0.08560995531348477,0.21297588805985568,0,70,255.0,255.0,255.0
517,25.85,7.763161376310646,9.765161636815067,-30.79218276571277,0.10150881186291859,0.20733660013463975,-0.5271364518041705,-0.04259979145892403,-0.08556617033514416,0.21552054329187012,0,70,255.0,255.0,255.0
518,25.900000000000002,7.768183254185352,9.775421527352622,-30.818269127350852,0.09936004354292448,0.20305938624234104,-0.5162968082587764,-0.04335094134083931,-0.08552238535680354,0.21806519852388456,0,70,255.0,255.0,255.0
519,25.950000000000003,7.773096754706704,9.785467611926784,-30.84381032599262,0.0971737177288346,0.1987843615989593,-0.5053299319517818,-0.04410209122275459,-0.08547860037846293,0.22060985375589898,0,70,255.0,255.0,255.0
520,26.0,7.7779,9.7953,-30.8688,0.09494983442064911,0.19451152620449494,-0.49423582288318707,-0.04485324110467048,-0.0854348154001221,0.22315450898791278,0,70,255.0,255.0,255.0
521,26.05,7.782591938811087,9.804918318442414,-30.89323296498941,0.09273799085150781,0.19021192452095187,-0.4830851163226267,-0.04362050166098011,-0.08654925194159799,0.22287375343449645,0,70,255.0,255.0,255.0
522,26.1,7.78717482636802,9.814320263754977,-30.917108745595225,0.09058778425455104,0.18585660101033502,-0.4719484475397371,-0.04238776221728974,-0.08766368848307388,0.2225929978810801,0,70,255.0,255.0,255.0
523,26.150000000000002,7.791651744519411,9.823503049846332,-30.94042804370634,0.08849921462977878,0.18144555567264437,-0.4608258165345183,-0.041155022773599365,-0.08877812502454976,0.22231224232766378,0,70,255.0,255.0,255.0
524,26.200000000000003,7.796025775113868,9.832463890625124,-30.96319156121164,0.08647228197719103,0.1769787885078799,-0.44971722330697045,-0.03992228332990899,-0.08989256156602565,0.22203148677424742,0,70,255.0,255.0,255.0
525,26.25,7.8003,9.8412,-30.9854,0.08450698629678795,0.172456299516042,-0.4386226678570941,-0.038689543886219036,-0.09100699810750235,0.2217507312208311,0,70,255.0,255.0,255.0
526,26.3,7.804476045798359,9.849709295378663,-31.00705293732592,0.08251601390515573,0.16792029864035443,-0.42747467212151474,-0.04094935177906903,-0.0904330369199982,0.22416909820233671,0,70,255.0,255.0,255.0
527,26.35,7.8085497182172725,9.857992508165026,-31.02814545190633,0.08041205111888099,0.16341299582404203,-0.41620575803686005,-0.043209159671919024,-0.08985907573249403,0.22658746518384232,0,70,255.0,255.0,255.0
528,26.400000000000002,7.812515367737005,9.866051073262057,-31.048671497823786,0.07819509793796375,0.15893439106710489,-0.4048159256031301,-0.04546896756476902,-0.08928511454498989,0.22900583216534792,0,70,255.0,255.0,255.0
529,26.450000000000003,7.816367344837824,9.873886425572726,-31.06862502916083,0.07586515436240403,0.15448448436954293,-0.393305174820325,-0.04772877545761901,-0.08871115335748572,0.23142419914685353,0,70,255.0,255.0,255.0
530,26.5,7.8201,9.8815,-31.088,0.07342222039220198,0.1500632757313565,-0.3816735056884453,-0.04998858335046852,-0.0881371921699825,0.23384256612835896,0,70,255.0,255.0,255.0
531,26.55,7.823709477995475,9.888892500042937,-31.10679128570692,0.07097395352787116,0.14562688091764384,-0.3699761951913395,-0.04794209122276275,-0.08931860037852217,0.23404985375586707,0,70,255.0,255.0,255.0
532,26.6,7.827199100762894,9.896061703584925,-31.124997446779446,0.06862801126992563,0.14113141569350415,-0.3582685203128583,-0.04589559909505699,-0.09050000858706184,0.23425714138337517,0,70,255.0,255.0,255.0
533,26.650000000000002,7.830573984532574,9.903004657105447,-31.142617964998518,0.0663843936183654,0.1365768800589375,-0.3465504810530016,-0.043849106967351226,-0.09168141679560149,0.23446442901088327,0,70,255.0,255.0,255.0
534,26.700000000000003,7.833839245534836,9.909718407083979,-31.159652322145057,0.06424310057319045,0.13196327401394387,-0.33482207741176967,-0.041802614839645466,-0.09286282500414116,0.23467171663839137,0,70,255.0,255.0,255.0
535,26.75,7.837,9.9162,-31.1761,0.06220413213440094,0.1272905975585236,-0.323083309389163,-0.03975612271193968,-0.09404423321268074,0.23487900426590036,0,70,255.0,255.0,255.0
536,26.8,7.840059642219739,9.922447104449597,-31.19196031984642,0.06016417198335522,0.12259617768905694,-0.31132454711315655,-0.04184228332988779,-0.0937325615659827,0.23547148677435292,0,70,255.0,255.0,255.0
537,26.85,7.843014678731154,9.928459877495278,-31.207231960975893,0.0580199038014121,0.1179173414019252,-0.2995361607117274,-0.043928443947835905,-0.09342088991928467,0.23606396928280546,0,70,255.0,255.0,255.0
538,26.900000000000002,7.8458598941326985,9.93423909831616,-31.221913442182167,0.05577132758857157,0.11325408869712833,-0.2877181501848757,-0.046014604565784024,-0.09310921827258663,0.23665645179125802,0,70,255.0,255.0,255.0
539,26.950000000000003,7.848590073022829,9.939785546091365,-31.236003282258963,0.05341844334483363,0.1086064195746664,-0.2758705155326012,-0.04810076518373214,-0.0927975466258886,0.23724893429971056,0,70,255.0,255.0,255.0
540,27.0,7.8512,9.9451,-31.2495,0.05096125107019847,0.10397433403453966,-0.2639932567549051,-0.05018692580168005,-0.09248587497919092,0.23784141680816306,0,70,255.0,255.0,255.0
541,27.05,7.853685553125568,9.950182282158679,-31.26240103490743,0.048465358538715655,0.099300408326123,-0.25202161635603004,-0.0496487754576313,-0.09447115335747279,0.24102419914683088,0,70,255.0,255.0,255.0
542,27.1,7.856046984312492,9.955028386433964,-31.27469950931699,0.045996373524435266,0.09452721869879226,-0.23989083684022167,-0.04911062511358256,-0.09645643173575466,0.24420698148549871,0,70,255.0,255.0,255.0
543,27.150000000000002,7.858285638936632,9.959633349629911,-31.28638746627284,0.043554296027357324,0.0896547651525474,-0.22760091820747985,-0.048572474769533816,-0.09844171011403652,0.24738976382416653,0,70,255.0,255.0,255.0
544,27.200000000000003,7.8604028623738476,9.96399220855057,-31.297456948819125,0.04113912604748182,0.08468304768738846,-0.21515186045780466,-0.04803432442548507,-0.10042698849231839,0.25057254616283436,0,70,255.0,255.0,255.0
545,27.25,7.8624,9.9681,-31.3079,0.03875086358480891,0.07961206630331578,-0.20254366359119694,-0.047496174081436526,-0.10241226687060034,0.2537553285015022,0,70,255.0,255.0,255.0
546,27.3,7.864278145277989,9.971953366915688,-31.317710740523875,0.03637439386178131,0.07453818900644678,-0.1899009874627004,-0.04756261483966621,-0.10054282500415729,0.25195171663835136,0,70,255.0,255.0,255.0
547,27.35,7.86603738401888,9.975555376768867,-31.326891601756156,0.03399460210084223,0.06955778380289991,-0.17734849192736146,-0.04762905559789589,-0.09867338313771425,0.2501481047752006,0,70,255.0,255.0,255.0
548,27.400000000000002,7.867677550120775,9.978910703164201,-31.3354470927265,0.031611488301991654,0.06467085069267521,-0.16488617698518002,-0.04769549635612557,-0.09680394127127119,0.2483444929120498,0,70,255.0,255.0,255.0
549,27.450000000000003,7.869198477481781,9.982024019706355,-31.343381722464564,0.0292250524652296,0.059877389675772656,-0.1525140426361561,-0.04776193711435525,-0.09493449940482815,0.246540881048899,0,70,255.0,255.0,255.0
550,27.5,7.8706,9.9849,-31.3507,0.026835294590556228,0.05517740075219258,-0.14023208888029062,-0.047828377872585065,-0.09306505753838529,0.24473726918574856,0,70,255.0,255.0,255.0
551,27.55,7.871881865762473,9.987541050178567,-31.35740320299707,0.02443706601414912,0.05043483564808588,-0.12784643379315475,-0.048100765183697866,-0.09663754662587987,0.2506889342996793,0,70,255.0,255.0,255.0
552,27.6,7.873043479611988,9.98994050649057,-31.36347968365839,0.022025218072186374,0.04551364608960446,-0.11516319545032233,-0.04837315249481067,-0.10021003571337443,0.2566405994136101,0,70,255.0,255.0,255.0
553,27.650000000000002,7.874084160580266,9.992089437713286,-31.36891456282117,0.019599750764667988,0.0404138320767483,-0.10218237385179336,-0.04864553980592347,-0.10378252480086901,0.26259226452754086,0,70,255.0,255.0,255.0
554,27.700000000000003,7.875003227699029,9.993978912624003,-31.373692961322636,0.017160664091593957,0.03513539360951741,-0.08890396899756788,-0.048917927117036276,-0.10735501388836359,0.2685439296414716,0,70,255.0,255.0,255.0
555,27.75,7.8758,9.9956,-31.3778,0.014707958052964465,0.029678330687912185,-0.0753279808876468,-0.04919031442814904,-0.11092750297585793,0.2744955947554023,0,70,255.0,255.0,255.0
556,27.8,7.876474391672114,9.996948032370042,-31.381229247487855,0.012277342081623576,0.024298468401207928,-0.06196127736468956,-0.04803432442548516,-0.10426698849230934,0.2601725461628801,0,70,255.0,255.0,255.0
557,27.85,7.877028697533165,9.998035397268856,-31.384008063610295,0.00990452561041588,0.019251631838681102,-0.04931072627135843,-0.04687833442282127,-0.09760647400876075,0.24584949757035793,0,70,255.0,255.0,255.0
558,27.900000000000002,7.877465807558158,9.998878745982648,-31.386172255988814,0.007589508639341382,0.014537821000331711,-0.037376327607653415,-0.04572234442015738,-0.09094595952521216,0.23152644897783575,0,70,255.0,255.0,255.0
559,27.950000000000003,7.877788611722101,9.999494729797627,-31.387757632244888,0.005332291168400078,0.010157035886159758,-0.026158081373574525,-0.044566354417493494,-0.08428544504166358,0.21720340038531358,0,70,255.0,255.0,255.0
560,28.0,7.878,9.9999,-31.3888,0.0031328731975921215,0.006109276496165512,-0.015655987569122468,-0.04341036441482972,-0.07762493055811545,0.2028803517927925,0,70,255.0,255.0,255.0
561,28.05,7.87810696754907,10.000116420341257,-31.389350207051525,0.0012375656593620037,0.002707290747091456,-0.006772456748079702,-0.03240193711437392,-0.058454499404844845,0.1524608810489131,0,70,255.0,255.0,255.0
562,28.1,7.8781329302553535,10.000186704434004,-31.389519261900425,-0.00010732051384531606,0.0002638265556809444,-0.00040989946423094364,-0.02139350981391811,-0.03928406825157424,0.10204141030503365,0,70,255.0,255.0,255.0
563,28.150000000000002,7.878105409187103,10.00015877835612,-31.38943321322357,-0.0009017853220298377,-0.0012211160780660228,0.0034316842824238056,-0.010385082513462304,-0.020113637098303633,0.05162193956115421,0,70,255.0,255.0,255.0
564,28.200000000000003,7.878051925412568,10.000080568185492,-31.389218109697804,-0.0011458287651915618,-0.001747537154149447,0.004752294491884551,0.000623344786993496,-0.0009432059450330266,0.0012024688172747877,0,70,255.0,255.0,255.0
565,28.25,7.878,10.0,-31.389,-0.0008394508433305281,-0.0013154366725693898,0.0035519311641514636,0.011631772087448523,0.018227225208236227,-0.04921700192660106,0,70,255.0,255.0,255.0
566,28.3,7.877971338131608,9.999955086264924,-31.38887872430605,-0.00033160471907016023,-0.0005196313895727855,0.0014031043570222248,0.0086820728829659,0.013604986111627495,-0.036736070358567276,0,70,255.0,255.0,255.0
567,28.35,7.877964381445423,9.99994418499513,-31.388849288787988,2.8756444966074465e-05,4.506193859337896e-05,-0.00012167587170531591,0.00573237367848328,0.008982747015018765,-0.024255138790533485,0,70,255.0,255.0,255.0
568,28.400000000000002,7.877971755693434,9.999955740592869,-31.38888049111691,0.0002416326487781758,0.000378643311929104,-0.0010224095220311585,0.0027826744740006588,0.004360507918410035,-0.011774207222499694,0,70,255.0,255.0,255.0
569,28.450000000000003,7.8779860866276294,9.99997819746041,-31.38894112896389,0.0003070238923661443,0.0004811127304343882,-0.001299096593955302,-0.0001670247304819631,-0.00026173117819869654,0.0007067243455340932,0,70,255.0,255.0,255.0
570,28.5,7.878,10.0,-31.389,0.0002249301757299907,0.00035247019410925126,-0.0009517370874777946,-0.003116723934964372,-0.0048839702748071,0.013187655913566992,0,70,255.0,255.0,255.0
571,28.55,7.8780076799245,10.000012034599044,-31.389032495724287,8.885321691863714e-05,0.00013923481119789004,-0.00037596068000560754,-0.002326354417489693,-0.0036454450416472284,0.009843400385320163,0,70,255.0,255.0,255.0
572,28.6,7.878009543962957,10.000014955585481,-31.389040382947606,-7.705266018981903e-06,-1.2074310055476702e-05,3.26029510542357e-05,-0.0015359849000150141,-0.0024069198084873565,0.006499144857073335,0,70,255.0,255.0,255.0
