idx,t,px,py,pz,vx,vy,vz,ax,ay,az,yaw,mode,ledr,ledg,ledb
0,0.0,3.0,-3.0,0.0,1.374723991567263e-12,-5.965135087845485e-11,0.08070372962164774,-1.6496687898807156e-11,7.158162105414581e-10,-2.2460447554597724,0,70,255.0,255.0,255.0
1,0.05,3.0000000000000497,-3.000000000002147,0.0012485342663793185,6.323730361209409e-13,-2.743962140408923e-11,-0.030344284374042036,-1.3197350319045724e-11,5.726529684331666e-10,-2.195875804367818,0,70,255.0,255.0,255.0
2,0.1,3.000000000000066,-3.0000000000028635,-0.0029926209781609096,5.4988959662690333e-14,-2.3860540351381956e-12,-0.13888385081513407,-9.898012739284293e-12,4.2948972632487487e-10,-2.145706853275864,0,70,255.0,255.0,255.0
3,0.15000000000000002,3.0000000000000577,-3.000000000002505,-0.012598043355890797,-3.5742823780748845e-13,1.5509351228398267e-11,-0.24491496970162846,-6.5986751595228614e-12,2.863264842165832e-10,-2.095537902183909,0,70,255.0,255.0,255.0
4,0.2,3.000000000000033,-3.000000000001432,-0.02744231048908046,-6.048785562895961e-13,2.6246594386520127e-11,-0.34843764103352504,-3.29933757976143e-12,1.431632421082916e-10,-2.045368951091955,0,70,255.0,255.0,255.0
5,0.25,3.0,-3.0,-0.0474,-6.873619957836315e-13,2.9825675439227425e-11,-0.4494518648108239,0.0,0.0,-1.9952000000000014,0,70,255.0,255.0,255.0
6,0.30000000000000004,2.999999999999967,-2.9999999999985683,-0.07234568951091958,-6.048785562895955e-13,2.6246594386520127e-11,-0.5479576410335252,3.299337579761434e-12,-1.4316324210829177e-10,-1.945031048908046,0,70,255.0,255.0,255.0
7,0.35000000000000003,2.9999999999999423,-2.999999999997495,-0.10215395664410921,-3.574282378074881e-13,1.550935122839825e-11,-0.6439549697016285,6.598675159522865e-12,-2.8632648421658333e-10,-1.8948620978160904,0,70,255.0,255.0,255.0
8,0.4,2.9999999999999343,-2.999999999997137,-0.13669937902183912,5.498895966269079e-14,-2.3860540351382005e-12,-0.7374438508151341,9.898012739284295e-12,-4.2948972632487497e-10,-1.844693146724135,0,70,255.0,255.0,255.0
9,0.45,2.9999999999999503,-2.999999999997853,-0.17585653426637934,6.323730361209412e-13,-2.7439621404089237e-11,-0.828424284374042,1.3197350319045726e-11,-5.726529684331666e-10,-1.7945241956321796,0,70,255.0,255.0,255.0
10,0.5,3.0,-3.0,-0.2195,1.374723991567263e-12,-5.965135087845485e-11,-0.9168962703783521,1.649668789880716e-11,-7.15816210541458e-10,-1.7443552445402162,0,70,255.0,255.0,255.0
11,0.55,3.0000000000000826,-3.000000000003579,-0.2674993762227012,1.7871411890374423e-12,-7.75467561419913e-11,-1.0025611514918575,-9.693522803355793e-27,7.237830359838992e-25,-1.682239999999996,0,70,255.0,255.0,255.0
12,0.6000000000000001,3.000000000000165,-3.000000000007158,-0.3197043524454023,1.3747239915672617e-12,-5.965135087845477e-11,-1.085120270378352,-1.649668789880718e-11,7.158162105414595e-10,-1.6201247554597755,0,70,255.0,255.0,255.0
13,0.65,3.000000000000206,-3.0000000000089475,-0.3759596405567528,1.3747239915672692e-13,-5.96513508784544e-12,-1.1645736270378348,-3.299337579761431e-11,1.4316324210829167e-09,-1.5580095109195553,0,70,255.0,255.0,255.0
14,0.7000000000000001,3.0000000000001648,-3.0000000000071583,-0.43610995244540235,-1.9246135881941712e-12,8.351189122983693e-11,-1.2409212214703074,-4.949006369642149e-11,2.1474486316243755e-09,-1.495894266379335,0,70,255.0,255.0,255.0
15,0.75,3.0,-3.0,-0.5,-4.81153397048542e-12,2.0877972807459197e-10,-1.3141630536757687,-6.598675159522861e-11,2.8632648421658326e-09,-1.4337790218391167,0,70,255.0,255.0,255.0
16,0.8,2.999999999999703,-2.999999999987115,-0.5674760055982762,-6.543686199860172e-12,2.839404301814451e-10,-1.3843897529990454,-3.2993375797613685e-12,1.431632421082891e-10,-1.3752889510919561,0,70,255.0,255.0,255.0
17,0.8500000000000001,2.9999999999993983,-2.999999999973873,-0.638390233574282,-5.141467728461557e-12,2.2309605228542095e-10,-1.4516919487849644,5.938807643570587e-11,-2.5769383579492544e-09,-1.3167988803447956,0,70,255.0,255.0,255.0
18,0.9,2.999999999999241,-2.9999999999670726,-0.7125964587511499,-6.048785562895923e-13,2.6246594386519966e-11,-1.516069641033525,1.2207549045117297e-10,-5.297039958006793e-09,-1.2583088095976354,0,70,255.0,255.0,255.0
19,0.9500000000000001,2.9999999999993894,-2.999999999973515,-0.7899484559520119,7.0660813166557446e-12,-3.0660794351525856e-10,-1.5775228297447281,1.847629044666402e-10,-8.017141558064336e-09,-1.1998187388504749,0,70,255.0,255.0,255.0
20,1.0,3.0,-3.0,-0.8703,1.787141189037442e-11,-7.75467561419913e-10,-1.6360515149185728,2.4745031848210733e-10,-1.0737243158121874e-08,-1.1413286681033235,0,70,255.0,255.0,255.0
21,1.05,3.0000000000011053,-3.00000000004796,-0.953506201384195,2.438760361040325e-11,-1.058214964583789e-09,-1.6917358365119606,1.3197350319045526e-11,-5.726529684331581e-10,-1.0860441956321814,0,70,255.0,255.0,255.0
22,1.1,3.0000000000022435,-3.0000000000973515,-1.0394275132574702,1.919114692227897e-11,-8.32732858263229e-10,-1.7446559344817911,-2.2105561784401628e-10,9.591937221255558e-09,-1.0307597231610393,0,70,255.0,255.0,255.0
23,1.1500000000000001,3.0000000000028293,-3.0000000001227627,-1.127925724438648,2.2820418260015954e-12,-9.90212424582328e-11,-1.7948118088280647,-4.553085860070782e-10,1.975652741094427e-08,-0.9754752506898973,0,70,255.0,255.0,255.0
24,1.2000000000000002,3.000000000002277,-3.0000000000987828,-1.218862623746551,-2.6339711678428895e-11,1.1429198828312e-09,-1.8422034595507808,-6.895615541701399e-10,2.992111760063299e-08,-0.9201907782187553,0,70,255.0,255.0,255.0
25,1.25,3.0,-3.0,-1.3121,-6.667411359101225e-11,2.89309051760506e-09,-1.8868308866499401,-9.238145223332009e-10,4.008570779032165e-08,-0.8649063057476081,0,70,255.0,255.0,255.0
26,1.3,2.9999999999958757,-2.9999999998210463,-1.4075047888649448,-9.100672824175282e-11,3.948919428153711e-09,-1.9290029009531136,-4.949006369642072e-11,2.147448631624339e-09,-0.8219742663793294,0,70,255.0,255.0,255.0
27,1.35,2.999999999991628,-2.9999999996367235,-1.504964513395838,-7.162311996065435e-11,3.107835380767494e-09,-1.969028313287873,8.248343949403594e-10,-3.579081052707297e-08,-0.7790422270110506,0,70,255.0,255.0,255.0
28,1.4000000000000001,2.999999999989442,-2.9999999995418776,-1.6043718434942587,-8.523288747716781e-12,3.6983837544640987e-10,-2.006907123654219,1.6991588535771395e-09,-7.372906968577029e-08,-0.736110187642772,0,70,255.0,255.0,255.0
29,1.4500000000000002,2.999999999991504,-2.9999999996313544,-1.7056194490617866,9.829276539705971e-11,-4.26507158780954e-09,-2.0426393320521505,2.5734833122139197e-09,-1.1166732884446759e-07,-0.6931781482744933,0,70,255.0,255.0,255.0
30,1.5,3.0,-3.0,-1.8086,2.488250424736746e-10,-1.0796894509000327e-08,-2.076224938481668,3.4478077708506966e-09,-1.4960558800316474e-07,-0.6502461089062059,0,70,255.0,255.0,255.0
31,1.55,3.0000000000153912,-3.0000000006678564,-1.9131986431560262,3.3963930935660807e-10,-1.4737462748031053e-08,-2.107212559675585,1.8476290446663777e-10,-8.017141558064183e-09,-0.5892587388504814,0,70,255.0,255.0,255.0
32,1.6,3.000000000031245,-3.000000001355756,-2.019270433159179,2.6730133292033843e-10,-1.159860866480675e-08,-2.135150812366716,-3.078281961917421e-09,1.3357130488703637e-07,-0.5282713687947569,0,70,255.0,255.0,255.0
33,1.6500000000000001,3.0000000000394023,-3.0000000017097275,-2.1266629015843184,3.181111316486571e-11,-1.380332259327405e-09,-2.1600396965550606,-6.341326828301479e-09,2.751597513321369e-07,-0.46728399873903237,0,70,255.0,255.0,255.0
34,1.7000000000000002,3.0000000000317066,-3.000000001375799,-2.235223580006305,-3.668313499098101e-10,1.5917366468406964e-08,-2.181879212240619,-9.604371694685539e-09,4.167481977772375e-07,-0.4062966286833079,0,70,255.0,255.0,255.0
35,1.75,3.0,-3.0,-2.3448,-9.286260563036863e-10,4.029448751839625e-08,-2.200669359423391,-1.2867416561069582e-08,5.583366442223372e-07,-0.3453092586275659,0,70,255.0,255.0,255.0
36,1.8,2.9999999999425584,-2.999999997507528,-2.455241438510951,-1.2675505091846795e-09,5.5000931563970496e-08,-2.2165148603445486,-6.895615541701284e-10,2.99211176006323e-08,-0.28851077821874604,0,70,255.0,255.0,255.0
37,1.85,2.9999999998833933,-2.999999994940253,-2.566404153967448,-9.975822117206991e-10,4.328659927845949e-08,-2.2295204372452653,1.1488293452729326e-08,-4.984944090210726e-07,-0.23171229780992622,0,70,255.0,255.0,255.0
38,1.9000000000000001,2.9999999998529487,-2.9999999936192143,-2.6781461501684696,-1.1872116391174578e-10,5.151490661863189e-09,-2.2396860901255415,2.3666148459628786e-08,-1.0269099356427773e-06,-0.1749138174011064,0,70,255.0,255.0,255.0
39,1.9500000000000002,2.9999999998816693,-2.9999999948654503,-2.790325430912995,1.3690326342421814e-09,-5.9404394285818344e-08,-2.2470118189853765,3.5844003466528235e-08,-1.5553254622644824e-06,-0.11811533699228655,0,70,255.0,255.0,255.0
40,2.0,3.0,-3.0,-2.9028,3.4656791827410706e-09,-1.5038105556458467e-07,-2.25149762382477,4.802185847342765e-08,-2.0837409888861846e-06,-0.06131685658347408,0,70,255.0,255.0,255.0
41,2.0500000000000003,3.0000000002143747,-3.0000000093020316,-3.015427602800173,4.730562727382111e-09,-2.0526626350785103e-07,-2.2531279989462196,2.573483312213682e-09,-1.116673288444569e-07,-0.0038981482744898516,0,70,255.0,255.0,255.0
42,2.1,3.000000000435183,-3.0000000188832314,-3.1280649509710314,3.723027513962458e-09,-1.6154778844903123e-07,-2.251887438652219,-4.287489184899989e-08,1.860406331197253e-06,0.053520560034493875,0,70,255.0,255.0,255.0
43,2.15,3.0000000005488037,-3.0000000238134157,-3.2405684977418034,4.4307354248213643e-10,-1.9225630388126296e-08,-2.24777594294277,-8.832326701021348e-08,3.832479991238963e-06,0.11093926834347759,0,70,255.0,255.0,255.0
44,2.2,3.000000000441616,-3.0000000191624,-3.352794696341718,-5.109299187058914e-09,2.2170021067486635e-07,-2.2407935118178712,-1.3377164217142744e-07,5.804553651280691e-06,0.16835797665246183,0,70,255.0,255.0,255.0
45,2.25,3.0,-3.0,-3.4646,-1.2934090674660597e-08,5.612297347399425e-07,-2.2309401452775237,-1.79220017332641e-07,7.776627311322403e-06,0.22577668496144554,0,70,255.0,255.0,255.0
46,2.3000000000000003,2.9999999991999435,-2.999999965284345,-3.5758401502883603,-1.7654700400343765e-08,7.660641224674336e-07,-2.2181731438705703,-9.604371694684629e-09,4.167481977771976e-07,0.2849033713166907,0,70,255.0,255.0,255.0
47,2.35,2.9999999983758765,-2.9999999295268203,-3.6863680421484277,-1.3894527844129137e-08,6.029045545176656e-07,-2.2024498081458543,1.600112739432702e-07,-6.943130915767943e-06,0.3440300576719353,0,70,255.0,255.0,255.0
48,2.4000000000000004,2.999999997951837,-2.9999999111271225,-3.7960358588643164,-1.6535730060166494e-09,7.175103089063537e-08,-2.1837701381033763,3.2962691958122656e-07,-1.4303010029313146e-05,0.40315674402718044,0,70,255.0,255.0,255.0
49,2.45,2.999999998351865,-2.9999999284849497,-3.904695783720136,1.906816411399347e-08,-8.273964484136474e-07,-2.1621341337431366,4.992425652191814e-07,-2.166288914285829e-05,0.46228343038242503,0,70,255.0,255.0,255.0
50,2.5,3.0,-3.0,-4.0122,4.8270683515901316e-08,-2.0945378833951852e-06,-2.1375417950651343,6.688582108571364e-07,-2.902276825640342e-05,0.5214101167376697,0,70,255.0,255.0,255.0
51,2.5500000000000003,3.0000000029858507,-3.0000001295605867,-4.1184021960463895,6.588823887399294e-08,-2.8589902263618834e-06,-2.1100834255714993,3.584400346652489e-08,-1.5553254622643348e-06,0.5769246630077108,0,70,255.0,255.0,255.0
52,2.6,3.0000000060613123,-3.000000263009487,-4.223162080435258,5.1855083862554105e-08,-2.250070429621631e-06,-2.079849328764363,-5.97170203924081e-07,2.5912117331874507e-05,0.6324392092777515,0,70,255.0,255.0,255.0
53,2.6500000000000004,3.0000000076438473,-3.000000331678094,-4.326340866800933,6.171218481584506e-09,-2.677784931744185e-07,-2.0468395046437244,-1.2301844113146924e-06,5.33795601260136e-05,0.6879537555477928,0,70,255.0,255.0,255.0
54,2.7,3.000000006150922,-3.0000002668978007,-4.427799768777739,-7.116335726891497e-08,3.08788558297972e-06,-2.0110539532095837,-1.8631986187052984e-06,8.084700292015244e-05,0.7434683018178335,0,70,255.0,255.0,255.0
55,2.75,3.0,-3.0,-4.5274,-1.8014864338894467e-07,7.816921798840798e-06,-1.9724926744619415,-2.496212826095905e-06,0.0001083144457142913,0.7989828480878689,0,70,255.0,255.0,255.0
56,2.8000000000000003,2.9999999888566524,-2.9999995164733075,-4.625000665526086,-2.4589825509562803e-07,1.0669896782980099e-05,-1.931029153843433,-1.3377164217141505e-07,5.804553651280137e-06,0.85955797665247,0,70,255.0,255.0,255.0
57,2.85,2.9999999773788755,-2.999999018435232,-4.7204524361105396,-1.935258076060873e-07,8.39737716396886e-06,-1.8865368767966944,2.2286695417530537e-06,-9.67053384117301e-05,0.9201331052170706,0,70,255.0,255.0,255.0
58,2.9000000000000004,2.9999999714727728,-2.999998762160501,-4.813603873931952,-2.303130092032138e-08,9.993629418070355e-07,-1.8390158433217256,4.591110725677543e-06,-0.00019921523047474127,0.9807082337816717,0,70,255.0,255.0,255.0
59,2.95,2.999999977044446,-2.9999990039238473,-4.904303541168908,2.655852649616664e-07,-1.1524145883505237e-05,-1.7884660534185273,6.953551909602012e-06,-0.0003017251225377515,1.0412833623462723,0,70,255.0,255.0,255.0
60,3.0,3.0,-3.0,-4.9924,6.723238900398774e-07,-2.917314931196801e-05,-1.734887507087099,9.315993093526482e-06,-0.00040423501460076176,1.101858490910871,0,70,255.0,255.0,255.0
61,3.0500000000000003,3.00000004158754,-3.0000018045461814,-5.07774714184927,9.177047815085192e-07,-3.982059690555852e-05,-1.6785999590547662,4.992425652191346e-07,-2.1662889142856222e-05,1.1496434303824277,0,70,255.0,255.0,255.0
62,3.1,3.000000084423186,-3.0000036632495863,-5.160220175122584,7.222481465617949e-07,-3.133943822625381e-05,-1.6199231640488563,-8.317507963088135e-06,0.00036090923631504584,1.1974283698539836,0,70,255.0,255.0,255.0
63,3.1500000000000004,3.000000106465063,-3.0000046196799,-5.239699637471263,8.59539851997011e-08,-3.7296732740537276e-06,-1.5588571220693679,-1.713425849139548e-05,0.0007434813617729515,1.2452133093255402,0,70,255.0,255.0,255.0
64,3.2,3.0000000856712923,-3.0000037174068086,-5.316066066546628,-9.911777025777507e-07,4.300869795104122e-05,-1.4954018331163021,-2.5951009019702753e-05,0.0011260534872308534,1.2929982487970961,0,70,255.0,255.0,255.0
65,3.25,3.0,-3.0,-5.3892,-2.509146916770565e-06,0.00010887567544903124,-1.4295572971896588,-3.476775954801002e-05,0.0015086256126887554,1.340783188268654,0,70,255.0,255.0,255.0
66,3.3000000000000003,2.9999998447931886,-2.9999932653419656,-5.458961167076835,-3.4249208709384487e-06,0.00014861249083925396,-1.3600750099374967,-1.8631986187051203e-06,8.084700292014459e-05,1.438508301817816,0,70,255.0,255.0,255.0
67,3.35,2.9999996849283805,-2.999986328566424,-5.525126063399125,-2.695466778641091e-06,0.00011696037574104634,-1.2857064670078773,3.1041362310599494e-05,-0.0013469316068484536,1.536233415366977,0,70,255.0,255.0,255.0
68,3.4000000000000004,2.999999602666978,-2.9999827591198995,-5.587450376182999,-3.207846398784827e-07,1.3919330154407814e-05,-1.2064516684007986,6.394592323990439e-05,-0.0027747102166170642,1.6339585289161387,0,70,255.0,255.0,255.0
69,3.45,2.999999680270384,-2.9999861264489174,-5.64568979264458,3.699125545349339e-06,-0.00016051064592065973,-1.1223106141162633,9.685048416920901e-05,-0.004202488826385663,1.7316836424652997,0,70,255.0,255.0,255.0
70,3.5,3.0,-3.0,-5.6996,9.364263777042383e-06,-0.0004063295524841569,-1.0332833041542693,0.00012975504509851358,-0.005630267436154262,1.8294087560144625,0,70,255.0,255.0,255.0
71,3.5500000000000003,3.0000005792397064,-3.0000259340859556,-5.748984189843391,1.2781978702245273e-05,-0.0006026293664515591,-0.9422200011952503,6.953551909601326e-06,-0.002221725122541785,1.8131233623462784,0,70,255.0,255.0,255.0
72,3.6,3.0000011758632925,-3.0000574224847174,-5.7938355712809155,1.005961896800257e-05,-0.000628502064738337,-0.8519709679196412,-0.00011584794127930984,0.0011868171910706616,1.7968379686780942,0,70,255.0,255.0,255.0
73,3.6500000000000004,3.0000014828670256,-3.000085943840501,-5.834194857796745,1.1971845743142292e-06,-0.00048394764734449136,-0.7625362043274407,-0.00023864943446822204,0.004595359504683139,1.7805525750099098,0,70,255.0,255.0,255.0
74,3.7,3.0000011932471726,-3.000102976797524,-5.8701027628750495,-1.38053244788196e-05,-0.0001689661142700242,-0.6739157104186501,-0.00036145092765713327,0.008003901818295585,1.7642671813417259,0,70,255.0,255.0,255.0
75,3.75,3.0,-3.0001,-5.9016,-3.4947908191398966e-05,0.0003164425344850641,-0.5861094861932689,-0.0004842524208460439,0.011412444131908034,1.7479817876735444,0,70,255.0,255.0,255.0
76,3.8000000000000003,2.9999986382479857,-3.000066198314213,-5.928784473549604,2.97006062059167e-07,0.0011099049749637019,-0.502548985281502,0.001894048990984362,0.020326053487237317,1.5944382487971098,0,70,255.0,255.0,255.0
77,3.85,3.0000020116184496,-2.9999815814947075,-5.951982851477214,0.00015445699090703633,0.0023490478832087934,-0.42666566131355765,0.004272350402814746,0.029239662842566516,1.4408947099206766,0,70,255.0,255.0,255.0
78,3.9000000000000004,3.00001606586492,-2.999823865518096,-5.971578992630023,0.0004275320463435353,0.00403387125922036,-0.35845951428943434,0.006650651814645152,0.0381532721978958,1.287351171044242,0,70,255.0,255.0,255.0
79,3.95,3.0000467467409266,-2.99957076636099,-5.987956755855222,0.0008195221723715511,0.006164375102998372,-0.2979305442091333,0.009028953226475536,0.047066881553225,1.1338076321678088,0,70,255.0,255.0,255.0
80,4.0,3.0001,-2.9992,-6.0015,0.0013304273689910859,0.008740559414542843,-0.2450787510726538,0.011407254638305917,0.055980490908554253,0.9802640932913769,0,70,255.0,255.0,255.0
81,4.05,3.00018086776835,-2.9986900726571935,-6.012576315958196,0.001906029997052717,0.011715009466597183,-0.1989280576787373,0.01161685048415941,0.06299751117361972,0.8657636424652901,0,70,255.0,255.0,255.0
82,4.1000000000000005,3.0002907776629106,-2.998022651536453,-6.021488222810229,0.0024921124174070337,0.015040310531904856,-0.15850238682612444,0.011826446330012907,0.07001453143868533,0.7512631916392013,0,70,255.0,255.0,255.0
83,4.15,3.0004302536732954,-2.9971801940871154,-6.028521971683163,0.0030886746300540138,0.018716462610465747,-0.12380173851481667,0.012036042175866402,0.0770315517037508,0.6367627408131145,0,70,255.0,255.0,255.0
84,4.2,3.0005998197891204,-2.996145157758519,-6.033963813704066,0.0036957166349936687,0.022743465702279905,-0.09482611274481323,0.012245638021719895,0.08404857196881627,0.5222622899870277,0,70,255.0,255.0,255.0
85,4.25,3.0008,-2.9949,-6.0381,0.0043132384322259985,0.027121319807347343,-0.07157550951611405,0.012455233867573384,0.09106559223388169,0.4077618391609412,0,70,255.0,255.0,255.0
86,4.3,3.001032290678614,-2.9934271110570134,-6.041225462617612,0.004999583005724073,0.0318540571586514,-0.054570784003547465,0.014998549072349696,0.09824390181828131,0.2724271813417246,0,70,255.0,255.0,255.0
87,4.3500000000000005,3.00130207772991,-2.9917086123594814,-6.043669857281872,0.0058130933394609785,0.036945709989175526,-0.04433279138194156,0.01754186427712605,0.10542221140268106,0.13709252352250562,0,70,255.0,255.0,255.0
88,4.4,3.0016157194418978,-2.9897265581334422,-6.045771520637323,0.006753769433436686,0.04239627829891956,-0.04086153165129671,0.02008517948190236,0.11260052098708068,0.0017578657032890077,0,70,255.0,255.0,255.0
89,4.45,3.0019795741025903,-2.9874630026049354,-6.047868789328516,0.007821611287651208,0.04820576208788356,-0.04415700481161266,0.02262849468667867,0.1197788305714803,-0.13357679211592755,0,70,255.0,255.0,255.0
90,4.5,3.0024,-2.9849,-6.0503,0.009016618902104544,0.05437416135606754,-0.05421921086288942,0.025171809891454927,0.12695714015587978,-0.2689114499351443,0,70,255.0,255.0,255.0
91,4.55,3.0028819695171927,-2.982019883114753,-6.053386633571354,0.01025563798005276,0.060884761898795214,-0.07003680630707286,0.024388953226473817,0.13346688155322822,-0.3637923678321952,0,70,255.0,255.0,255.0
92,4.6000000000000005,3.003424911417451,-2.9788060990256224,-6.057382748062288,0.011455514224751938,0.06772084951139043,-0.09059844764610922,0.023606096561492693,0.13997662295057675,-0.4586732857292478,0,70,255.0,255.0,255.0
93,4.65,3.0040268685591136,-2.975242373379116,-6.062525545767546,0.012616247636202041,0.07488242419385296,-0.11590413487999779,0.022823239896511582,0.1464863643479252,-0.5535542036262987,0,70,255.0,255.0,255.0
94,4.7,3.0046858838005175,-2.97131243182174,-6.069052228981869,0.01373783821440309,0.0823694859461829,-0.14595386800873889,0.022040383231530472,0.15299610574527361,-0.6484351215233497,0,70,255.0,255.0,255.0
95,4.75,3.0054,-2.967,-6.0772,0.01482028595935508,0.09018203476838028,-0.18074764703233254,0.021257526566549417,0.1595058471426224,-0.7433160394204004,0,70,255.0,255.0,255.0
96,4.800000000000001,3.006167831252615,-2.962294956483975,-6.087120003096973,0.0158978650740617,0.0979508952461665,-0.215121990768167,0.02184563802171461,0.1512485719688216,-0.6316577100129579,0,70,255.0,255.0,255.0
97,4.8500000000000005,3.0069902766002854,-2.957211791538028,-6.098619150468978,0.017004849761526553,0.10530689196526252,-0.24391341803362876,0.022433749476879795,0.14299129679502093,-0.5199993806055174,0,70,255.0,255.0,255.0
98,4.9,3.0078688063216474,-2.9517711483500944,-6.111418296292496,0.018141240021749667,0.11225002492566855,-0.2671219288287185,0.023021860932044978,0.13473402162122028,-0.40834105119807695,0,70,255.0,255.0,255.0
99,4.95,3.0088048906953397,-2.9459936701081064,-6.125238294744009,0.019307035854731043,0.11878029412738451,-0.2847475231534363,0.023609972387210163,0.12647674644741963,-0.2966827217906365,0,70,255.0,255.0,255.0
100,5.0,3.0098,-2.9399,-6.1398,0.020502237260470676,0.12489769957041044,-0.2967902010077821,0.0241980838423754,0.11821947127361887,-0.18502439238319557,0,70,255.0,255.0,255.0
101,5.050000000000001,3.010854705472345,-2.9335066909493466,-6.154881354040758,0.02167290172369747,0.130847657116538,-0.3066752306202601,0.022628494686695682,0.11977883057148017,-0.21037679211591895,0,70,255.0,255.0,255.0
102,5.1000000000000005,3.0119659821814064,-2.9268139348222646,-6.170488650061803,0.02276508672914026,0.13687558262755853,-0.3178278802193741,0.02105890553101599,0.12133818986934146,-0.23572919184864186,0,70,255.0,255.0,255.0
103,5.15,3.0131299061542958,-2.9198178332205096,-6.186685269062472,0.023778792276799063,0.14298147610347212,-0.3302481498051242,0.019489316375336303,0.12289754916720273,-0.2610815915813648,0,70,255.0,255.0,255.0
104,5.2,3.0143425534181234,-2.9125144877458364,-6.203534592042093,0.02471401836667388,0.14916533754427874,-0.34393603937751044,0.017919727219656612,0.12445690846506402,-0.2864339913140877,0,70,255.0,255.0,255.0
105,5.25,3.0156,-2.9049,-6.2211,0.025570764998764716,0.15542716694997846,-0.35889154893653286,0.01635013806397681,0.12601626776292574,-0.3117863910468115,0,70,255.0,255.0,255.0
106,5.300000000000001,3.0168997468580048,-2.896971879718638,-6.239430580740001,0.026434528031152208,0.1616824762876835,-0.3742570867507876,0.018200383231522364,0.12419610574527289,-0.30283512152337055,0,70,255.0,255.0,255.0
107,5.3500000000000005,3.0182449946740886,-2.888733269172913,-6.258518249283809,0.02739080332191696,0.16784677752450583,-0.3891750610888701,0.020050628399067884,0.12237594372762006,-0.29388385199992983,0,70,255.0,255.0,255.0
108,5.4,3.0196403690611695,-2.880188718767869,-6.2783406274576175,0.02843959087105899,0.17392007066044549,-0.4036454719507805,0.021900873566613407,0.12055578170996724,-0.28493258247648906,0,70,255.0,255.0,255.0
109,5.45,3.0210904956321674,-2.87134277890855,-6.298875337087618,0.029580890678578293,0.1799023556955025,-0.41766831933651893,0.02375111873415893,0.11873561969231443,-0.27598131295304834,0,70,255.0,255.0,255.0
110,5.5,3.0226,-2.8622,-6.3201,0.030814702744474873,0.18579363262967685,-0.43124360324608524,0.025601363901704505,0.11691545767466138,-0.26703004342960845,0,70,255.0,255.0,255.0
111,5.550000000000001,3.0241719070956368,-2.8527641901761007,-6.341996322999242,0.03204498615169755,0.19163843773272887,-0.44461642237659155,0.023609972387201673,0.1168767464474163,-0.2678827217906358,0,70,255.0,255.0,255.0
112,5.6000000000000005,3.0258028391222416,-2.8430361884860833,-6.3645623528029605,0.033175699983195056,0.19748130727441854,-0.45803187542514895,0.021618580872698873,0.11683803522017122,-0.26873540015166314,0,70,255.0,255.0,255.0
113,5.65,3.027487817601027,-2.833016091708015,-6.387800221107058,0.03420684423896743,0.20332224125474596,-0.4714899623917578,0.019627189358196077,0.11679932399292614,-0.26958807851269045,0,70,255.0,255.0,255.0
114,5.7,3.029221864053209,-2.8227039966199645,-6.411712059607437,0.03513841891901466,0.2091612396737111,-0.48499068327641787,0.017635797843693277,0.11676061276568106,-0.2704407568737178,0,70,255.0,255.0,255.0
115,5.75,3.031,-2.8121,-6.4363,0.03597042402333675,0.21499830253131405,-0.49853403807912944,0.015644406329190508,0.1167219015384362,-0.27129343523474425,0,70,255.0,255.0,255.0
116,5.800000000000001,3.03281822475945,-2.801204159576958,-6.4615649272630336,0.03676152736205805,0.22083577278140168,-0.5120452237428501,0.015999727219661034,0.11677690846506503,-0.2691539913140765,0,70,255.0,255.0,255.0
117,5.8500000000000005,3.0346764488369478,-2.7900163768827544,-6.487502739504351,0.03757039674530286,0.22667599337782063,-0.5254494372105372,0.016355048110131557,0.11683191539169387,-0.2670145473934088,0,70,255.0,255.0,255.0
118,5.9,3.0365755605347213,-2.778536514400071,-6.5141080881141535,0.0383970321730712,0.232518964320571,-0.5387466784821909,0.01671036900060208,0.11688692231832269,-0.26487510347274107,0,70,255.0,255.0,255.0
119,5.95,3.0385164481549976,-2.7667644346115914,-6.541375624482637,0.03924143364536306,0.23836468560965285,-0.5519369475578113,0.0170656898910726,0.11694192924495153,-0.2627356595520734,0,70,255.0,255.0,255.0
120,6.0,3.0405,-2.7547,-6.5693,0.040103601162178454,0.24421315724506612,-0.5650202444373982,0.0174210107815429,0.11699693617158036,-0.2605962156314039,0,70,255.0,255.0,255.0
121,6.050000000000001,3.042527193866566,-2.7423439715160653,-6.597875967948628,0.04098890440007092,0.2500104711416636,-0.5780026826520098,0.01799111873415523,0.11489561969231456,-0.2587013129530543,0,70,255.0,255.0,255.0
122,6.1000000000000005,3.0445993655299675,-2.7297007039828993,-6.627098689179637,0.04190271303559399,0.2557027192142976,-0.5908903757327038,0.018561226686767546,0.1127943032130488,-0.25680641027470474,0,70,255.0,255.0,255.0
123,6.15,3.0467179402600864,-2.716775450691702,-6.656963426436332,0.04284502706874767,0.26128990146296843,-0.6036833236794802,0.019131334639379865,0.11069298673378303,-0.2549115075963552,0,70,255.0,255.0,255.0
124,6.2,3.048884343326803,-2.7035734649336693,-6.6874654424620195,0.04381584649953196,0.2667720178876759,-0.6163815264923391,0.01970144259199218,0.10859167025451727,-0.25301660491800565,0,70,255.0,255.0,255.0
125,6.25,3.0511,-2.6901,-6.7186,0.04481517132794687,0.27214906848842013,-0.6289849841712807,0.020271550544604333,0.10649035377525262,-0.25112170223965613,0,70,255.0,255.0,255.0
126,6.300000000000001,3.053365799774286,-2.6763591543587806,-6.750363200942462,0.04581085503765443,0.27749034265194367,-0.641544045649115,0.019555797843697365,0.10716061276568692,-0.2512407568737114,0,70,255.0,255.0,255.0
127,6.3500000000000005,3.0556804890431812,-2.662350407185647,-6.782754503777108,0.04677075111231662,0.2828651297649889,-0.654109059858652,0.01884004514279041,0.10783087175612122,-0.25135981150776665,0,70,255.0,255.0,255.0
128,6.4,3.0580422784249337,-2.648072082833123,-6.815774206140522,0.04769485955193346,0.28827342982755577,-0.6666800267998917,0.018124292441883454,0.1085011307465555,-0.2514788661418219,0,70,255.0,255.0,255.0
129,6.45,3.0604493785377906,-2.633522505653733,-6.849422605669291,0.04858318035650496,0.2937152428396444,-0.679256946472834,0.0174085397409765,0.1091713897369898,-0.25159792077587717,0,70,255.0,255.0,255.0
130,6.5,3.0629,-2.6187,-6.8837,0.04943571352603111,0.2991905688012548,-0.6918398188774794,0.016692787040069657,0.10984164872742364,-0.2517169754099333,0,70,255.0,255.0,255.0
131,6.550000000000001,3.0653928070362895,-2.603603411048812,-6.918605628281529,0.05027967544930989,0.30466815825056404,-0.7043651347515296,0.01706568989108112,0.10926192924494317,-0.24929565955206967,0,70,255.0,255.0,255.0
132,6.6000000000000005,3.0679282782973067,-2.5882336672745123,-6.954134495711939,0.05114228251513923,0.31011676172574915,-0.7167693848326865,0.017438592742092578,0.10868220976246272,-0.24687434369420608,0,70,255.0,255.0,255.0
133,6.65,3.0705073460401793,-2.572592217975806,-6.990280549001582,0.05202353472351914,0.3155363792268102,-0.7290525691209502,0.017811495593104035,0.10810249027998226,-0.24445302783634248,0,70,255.0,255.0,255.0
134,6.7,3.0731309425220346,-2.5566805124514,-7.027037734860819,0.052923432074449626,0.32092701075374735,-0.7412146876163206,0.018184398444115492,0.1075227707975018,-0.2420317119784789,0,70,255.0,255.0,255.0
135,6.75,3.0758,-2.5405,-7.0644,0.053841974567930675,0.3262886563065604,-0.7532557403187979,0.018557301295127004,0.10694305131502224,-0.23961039612061708,0,70,255.0,255.0,255.0
136,6.800000000000001,3.0785149720805562,-2.5240528014459698,-7.102362285931423,0.05475044316510835,0.331581024345799,-0.765235415344764,0.017781442591979522,0.10475167025451869,-0.2395766049180205,0,70,255.0,255.0,255.0
137,6.8500000000000005,3.0812743977675914,-2.5073437237163034,-7.140923513375141,0.05562011882712864,0.3367638233320123,-0.7772134008106002,0.017005583888832058,0.10256028919401519,-0.2395428137154239,0,70,255.0,255.0,255.0
138,6.9,3.0840763374143494,-2.4903782452636523,-7.180083597853148,0.056451001553991555,0.3418370532652005,-0.7891896967163063,0.01622972518568459,0.10036890813351168,-0.2395090225128273,0,70,255.0,255.0,255.0
139,6.95,3.086918851374071,-2.4731618445406673,-7.219842454887436,0.05724309134569709,0.34680071414536345,-0.8011643030618828,0.015453866482537123,0.09817752707300817,-0.2394752313102307,0,70,255.0,255.0,255.0
140,7.0,3.0898,-2.4557,-7.2602,0.05799638820224526,0.3516548059725013,-0.8131372198473293,0.014678007779389435,0.09598614601250421,-0.23944144010763413,0,70,255.0,255.0,255.0
141,7.050000000000001,3.0927185046414873,-2.4379965831673074,-7.30115562799278,0.05875055189025453,0.356495744366239,-0.8250772038694172,0.015488539740980934,0.09765138973699908,-0.23815792077587492,0,70,255.0,255.0,255.0
142,7.1000000000000005,3.0956757306323266,-2.4200490378602724,-7.342706650787498,0.05954524217634336,0.3614199449462013,-0.8369530119249169,0.01629907170257242,0.0993166334614939,-0.2368744014441157,0,70,255.0,255.0,255.0
143,7.15,3.098673704302423,-2.401853200969584,-7.384849859585828,0.06038045906051176,0.3664274077123883,-0.8487646440138288,0.017109603664163902,0.10098187718598874,-0.2355908821123565,0,70,255.0,255.0,255.0
144,7.2,3.1017144519816795,-2.38340490938593,-7.427582045589439,0.06125620254275974,0.37151813266480016,-0.8605121001361525,0.01792013562575539,0.10264712091048356,-0.2343073627805973,0,70,255.0,255.0,255.0
145,7.25,3.1048,-2.3647,-7.4709,0.062172472623087296,0.37669211980343664,-0.8721953802918885,0.01873066758734676,0.10431236463497662,-0.2330238434488372,0,70,255.0,255.0,255.0
146,7.300000000000001,3.1079318093534956,-2.3457360658847994,-7.51480000209746,0.06309534927387386,0.3818439981892486,-0.8837837691775714,0.01818439844411547,0.10176277079749788,-0.23051171197847142,0,70,255.0,255.0,255.0
147,7.3500000000000005,3.1111090797031014,-2.3265177248426063,-7.559276283474866,0.06399091246749886,0.38686839688318647,-0.8952465514897358,0.01763812930088419,0.09921317696001919,-0.2279995805081057,0,70,255.0,255.0,255.0
148,7.4,3.1143304453759595,-2.3070513508580124,-7.604322563803542,0.06485916220396229,0.39176531588525043,-0.9065837272283819,0.017091860157652912,0.09666358312254049,-0.22548744903773998,0,70,255.0,255.0,255.0
149,7.45,3.1175945406992116,-2.287343317915613,-7.649932562754811,0.06570009848326414,0.3965347551954405,-0.9177952963935097,0.016545591014421632,0.09411398928506179,-0.22297531756737426,0,70,255.0,255.0,255.0
150,7.5,3.1209,-2.2674,-7.6961,0.06651372130540445,0.4011767148137566,-0.9288812589851192,0.015999321871190686,0.09156439544758133,-0.22046318609700677,0,70,255.0,255.0,255.0
151,7.550000000000001,3.1242454579445305,-2.247226353293492,-7.742819563617384,0.06730005101424766,0.4057762628767711,-0.9398997194203002,0.015453866482537118,0.09241752707299576,-0.22027523131022378,0,70,255.0,255.0,255.0
152,7.6000000000000005,3.1276295505552674,-2.2268216627693014,-7.790089815313042,0.06805910795365817,0.41041846752105626,-0.9509087821161416,0.01490841109388356,0.09327065869841018,-0.2200872765234408,0,70,255.0,255.0,255.0
153,7.65,3.1310509141937386,-2.2061837955983647,-7.837910285200009,0.068790892123636,0.4151033287466121,-0.9619084470726441,0.014362955705230003,0.09412379032382462,-0.21989932173665777,0,70,255.0,255.0,255.0
154,7.7,3.1345081852214736,-2.185310618951619,-7.886280503391317,0.06949540352418117,0.41983084655343866,-0.9728987142898073,0.013817500316576446,0.09497692194923904,-0.21971136694987478,0,70,255.0,255.0,255.0
155,7.75,3.138,-2.1642,-7.9352,0.07017264215529365,0.42460102094153596,-0.9838795837676315,0.013272044927922888,0.09583005357465169,-0.2195234121630918,0,70,255.0,255.0,255.0
156,7.800000000000001,3.1415255588683824,-2.142850520941231,-7.98466734343301,0.07085644666913583,0.42937095030366457,-0.9947933531412244,0.014080135625764234,0.09496712091049185,-0.217027362780621,0,70,255.0,255.0,255.0
157,7.8500000000000005,3.1450863180758284,-2.121263624080187,-8.034677255272971,0.07158065571787008,0.4340977330325852,-1.005582320045694,0.014888226323605567,0.09410418824633203,-0.21453131339815026,0,70,255.0,255.0,255.0
158,7.9,3.148684297849084,-2.099441466748526,-8.085223495396427,0.07234526930149639,0.4387813691282978,-1.0162464844810393,0.015696317021446898,0.09324125558217222,-0.21203526401567954,0,70,255.0,255.0,255.0
159,7.95,3.1523215184148925,-2.0773862062779105,-8.136299823679924,0.07315028742001477,0.44342185859080235,-1.0267858464472617,0.016504407719288232,0.0923783229180124,-0.2095392146332088,0,70,255.0,255.0,255.0
160,8.0,3.156,-2.0551,-8.1879,0.0739957100734252,0.448019201420099,-1.0372004059443602,0.01731249841712934,0.09151539025385169,-0.20704316525073452,0,70,255.0,255.0,255.0
161,8.05,3.1597211065819417,-2.032585162941581,-8.240019062650584,0.07484216230921358,0.452563935908572,-1.0475668680148122,0.01654559101440468,0.09027398928506576,-0.20761531756733972,0,70,255.0,255.0,255.0
162,8.1,3.1634835771414194,-2.00984464090995,-8.292657163595079,0.07565026917486567,0.4570466003486055,-1.057961937701094,0.01577868361168005,0.08903258831627987,-0.20818746988394493,0,70,255.0,255.0,255.0
163,8.15,3.167285494409926,-1.986881537407528,-8.34581573321429,0.07642003067038157,0.4614671947402,-1.0683856150032067,0.01501177620895539,0.08779118734749396,-0.20875962220055017,0,70,255.0,255.0,255.0
164,8.200000000000001,3.1711249411189546,-1.963698955936737,-8.399496201888997,0.07715144679576123,0.465825719083355,-1.0788378999211494,0.014244868806230732,0.08654978637870803,-0.20933177451715537,0,70,255.0,255.0,255.0
165,8.25,3.175,-1.9403,-8.4537,0.07784451755100465,0.4701221733780708,-1.0893187924549221,0.013477961403506433,0.0853083854099208,-0.20990392683375703,0,70,255.0,255.0,255.0
166,8.3,3.178909214803852,-1.9166872272924422,-8.508426805964671,0.07852690409400695,0.47438930606204954,-1.0997231747995133,0.01381750031658509,0.08537692194922597,-0.2062713669498883,0,70,255.0,255.0,255.0
167,8.35,3.1828529733584947,-1.8928610122800125,-8.563669290346715,0.07922626758266314,0.47865986557299334,-1.109945929149911,0.014157039229663734,0.08544545848853113,-0.2026388070660197,0,70,255.0,255.0,255.0
168,8.4,3.1868321245112123,-1.8688211836213602,-8.619418371746425,0.07994260801697332,0.48293385191090255,-1.1199870555061153,0.014496578142742392,0.0855139950278363,-0.19900624718215096,0,70,255.0,255.0,255.0
169,8.450000000000001,3.1908475171092863,-1.8445675699751387,-8.675664968764089,0.08067592539693741,0.4872112650757771,-1.1298465538681262,0.014836117055821049,0.08558253156714146,-0.19537368729828222,0,70,255.0,255.0,255.0
170,8.5,3.1949,-1.8201,-8.7324,0.08142621972255543,0.4914921050676167,-1.1395244242359432,0.015175655968899582,0.08565106810644663,-0.1917411274144083,0,70,255.0,255.0,255.0
171,8.55,3.1989900342026516,-1.7954187278886475,-8.789616113490741,0.08217022131476023,0.4957508398432284,-1.1491244327871348,0.014584407719292428,0.0846983229180174,-0.19225921463324733,0,70,255.0,255.0,255.0
172,8.6,3.2031165294246016,-1.7705257099700011,-8.847312875018062,0.08288466049448466,0.4999619373594184,-1.158750345699268,0.013993159469685294,0.08374557772958822,-0.19277730185208633,0,70,255.0,255.0,255.0
173,8.65,3.2072780075452254,-1.7454233281070295,-8.905491579800017,0.08356953726172876,0.5041253976161871,-1.1684021629723431,0.01340191122007814,0.082792832541159,-0.19329538907092533,0,70,255.0,255.0,255.0
174,8.700000000000001,3.2114729904438994,-1.7201139641627052,-8.964153523054648,0.0842248516164925,0.5082412206135345,-1.178079884606361,0.012810662970470985,0.08184008735272978,-0.19381347628976436,0,70,255.0,255.0,255.0
175,8.75,3.2157,-1.6946,-9.0233,0.08485060355877586,0.51230940635146,-1.1877835106013197,0.012219414720863409,0.08088734216430016,-0.1943315635085998,0,70,255.0,255.0,255.0
176,8.8,3.219957848385542,-1.6688834611529655,-9.082931140072374,0.08546421064695289,0.5163513345650355,-1.197443094051962,0.012324868806218216,0.08078978637871277,-0.19205177451709152,0,70,255.0,255.0,255.0
177,8.85,3.2242465089430996,-1.6429649478399846,-9.143042409581035,0.08608309043939767,0.5203883849893313,-1.2069886880530287,0.012430322891573019,0.08069223059312539,-0.1897719855255833,0,70,255.0,255.0,255.0
178,8.9,3.2285662453078867,-1.6168447039505205,-9.203628109053517,0.08670724293611021,0.5244205576243479,-1.2164202926045204,0.012535776976927827,0.08059467480753799,-0.18749219653407498,0,70,255.0,255.0,255.0
179,8.950000000000001,3.2329173211151154,-1.5905229733740371,-9.26468253901733,0.08733666813709047,0.5284478524700853,-1.2257379077064365,0.012641231062282633,0.0804971190219506,-0.18521240754256668,0,70,255.0,255.0,255.0
180,9.0,3.2373,-1.564,-9.3262,0.08797136604233846,0.5324702695265431,-1.2349415333587768,0.012746685147637216,0.0803995632363641,-0.1829326185510496,0,70,255.0,255.0,255.0
181,9.05,3.24171457225518,-1.5372762274994893,-9.388175326219773,0.08861293609742525,0.5364758218966309,-1.24406319100501,0.012916117055834066,0.079822531567142,-0.18193368729827453,0,70,255.0,255.0,255.0
182,9.1,3.2461614348029992,-1.5103528986700616,-9.450605486657789,0.08926297774792186,0.5404525226832573,-1.253134902088604,0.013085548964030911,0.07924549989791992,-0.18093475604549952,0,70,255.0,255.0,255.0
183,9.15,3.2506410112232285,-1.4832314560908881,-9.513487983985922,0.08992149099382835,0.5444003718864228,-1.26215666660956,0.013254980872227764,0.07866846822869782,-0.17993582479272446,0,70,255.0,255.0,255.0
184,9.200000000000001,3.255153725095639,-1.4559133423411428,-9.576820320876037,0.09058847583514466,0.5483193695061271,-1.2711284845678767,0.013424412780424614,0.07809143655947572,-0.1789368935399494,0,70,255.0,255.0,255.0
185,9.25,3.2597,-1.4284,-9.6406,0.09126393227187078,0.5522095155423702,-1.2800503559635548,0.013593844688621126,0.07751440489025097,-0.17793796228717795,0,70,255.0,255.0,255.0
186,9.3,3.2642798625937384,-1.4006932288490754,-9.704824355048538,0.09192404496334809,0.5560493778484444,-1.2889121419279805,0.012810662970470788,0.07608008735272075,-0.17653347628984048,0,70,255.0,255.0,255.0
187,9.35,3.268891751844903,-1.3727962574797703,-9.769490043787798,0.09254499856891786,0.5598175242776423,-1.2977037035925387,0.012027481252320477,0.07464576981519057,-0.17512899029250306,0,70,255.0,255.0,255.0
188,9.4,3.273533709799198,-1.3447126716859261,-9.834593555002794,0.09312679308858013,0.5635139548299636,-1.3064250409572304,0.011244299534170138,0.07321145227766034,-0.17372450429516562,0,70,255.0,255.0,255.0
189,9.450000000000001,3.2782037785023297,-1.3164460572613876,-9.900131377478525,0.09366942852233488,0.5671386695054084,-1.3150761540220557,0.0104611178160198,0.07177713474013012,-0.17232001829782814,0,70,255.0,255.0,255.0
190,9.5,3.2829,-1.288,-9.9661,0.09417290487018211,0.5706916683039766,-1.3236570427870133,0.009677936097869266,0.07034281720260172,-0.17091553230049428,0,70,255.0,255.0,255.0
191,9.55,3.287621177369867,-1.2593772571042061,-10.03249605358608,0.0946828840491856,0.5742226667095904,-1.332176241283089,0.010721231062269958,0.0708971190219538,-0.1698524075425304,0,70,255.0,255.0,255.0
192,9.600000000000001,3.2923691578173893,-1.2305772714108574,-10.099316738191014,0.09524502797640912,0.5777813802061721,-1.3406422835412668,0.01176452602667065,0.07145142084130589,-0.16878928278456654,0,70,255.0,255.0,255.0
193,9.65,3.297146549579978,-1.2015986571654063,-10.166559396002906,0.09585933665185266,0.5813678087937211,-1.3490551695615458,0.012807820991071302,0.07200572266065795,-0.16772615802660268,0,70,255.0,255.0,255.0
194,9.700000000000001,3.301955960895045,-1.1724400286133025,-10.23422136920987,0.09652581007551625,0.5849819524722378,-1.3574148993439268,0.013851115955471994,0.07256002448001003,-0.1666630332686388,0,70,255.0,255.0,255.0
195,9.75,3.3068,-1.1431,-10.3023,0.09724444824739983,0.5886238112417221,-1.3657214728884095,0.014894410919872536,0.07311432629935943,-0.1655999085106714,0,70,255.0,255.0,255.0
196,9.8,3.311680227926795,-1.1135777427340974,-10.370792230607154,0.09795241883990749,0.5922599553131931,-1.3739508929396735,0.013424412780432982,0.07233143655947706,-0.16357689353988217,0,70,255.0,255.0,255.0
197,9.850000000000001,3.3165940168855412,-1.0838746568767965,-10.43969340344816,0.09858688952544314,0.59585695489767,-1.382079162242398,0.01195441464099343,0.07154854681959469,-0.16155387856909295,0,70,255.0,255.0,255.0
198,9.9,3.3215376918808897,-1.0539926996524474,-10.508998460985588,0.09914786030400682,0.5994148099951525,-1.3901062807965825,0.010484416501553928,0.07076565707971233,-0.1595308635983038,0,70,255.0,255.0,255.0
199,9.950000000000001,3.326507577917492,-1.023933828285398,-10.578702345682009,0.09963533117559853,0.6029335206056412,-1.398032248602228,0.009014418362114376,0.06998276733982996,-0.15750784862751455,0,70,255.0,255.0,255.0
200,10.0,3.3315,-0.9937,-10.6488,0.10004930214021826,0.6064130867291355,-1.405857065659334,0.007544420222674653,0.06919987759994761,-0.15548483365672183,0,70,255.0,255.0,255.0
201,10.05,3.3365123109229535,-0.9632933719594011,-10.719287023985306,0.10045144059118553,0.6098415120376375,-1.4136201869581997,0.008541117816015622,0.06793713474012966,-0.15504001829790326,0,70,255.0,255.0,255.0
202,10.100000000000001,3.341545974640447,-0.9327169010819519,-10.790161648016356,0.10090341392181983,0.6132068002031485,-1.4213610674891248,0.009537815409356594,0.06667439188031171,-0.15459520293908469,0,70,255.0,255.0,255.0
203,10.15,3.3466034828964633,-0.901973744224803,-10.861422760054753,0.10140522213212118,0.6165089512256687,-1.4290797072521084,0.010534513002697529,0.0654116490204938,-0.1541503875802661,0,70,255.0,255.0,255.0
204,10.200000000000001,3.3516873274349868,-0.8710670582451018,-10.9330692480621,0.10195686522208958,0.6197479651051979,-1.4367761062471511,0.011531210596038498,0.06414890616067585,-0.15370557222144754,0,70,255.0,255.0,255.0
205,10.25,3.3568,-0.84,-11.0051,0.10255834319172502,0.6229238418417362,-1.4444502644742532,0.012527908189379655,0.06288616330085617,-0.1532607568626343,0,70,255.0,255.0,255.0
206,10.3,3.361943328381392,-0.8087751694282954,-11.077513273451627,0.10316981879534642,0.6260699965362578,-1.452064359227535,0.01193111595547646,0.0629600244800077,-0.15130303326864084,0,70,255.0,255.0,255.0
207,10.350000000000001,3.3671164845526733,-0.7773929387953907,-11.150304804486428,0.10375145478727267,0.6292198442897371,-1.4595805678011176,0.011334323721573263,0.06303388565915924,-0.1493453096746474,0,70,255.0,255.0,255.0
208,10.4,3.3723179765332576,-0.7458531234483393,-11.223469698795412,0.10430325116750376,0.6323733851021738,-1.4669988901949997,0.01073753148767009,0.06310774683831077,-0.14738758608065403,0,70,255.0,255.0,255.0
209,10.450000000000001,3.3775463123425618,-0.7141555387341909,-11.2970030620696,0.10482520793603968,0.6355306189735681,-1.474319326409183,0.010140739253766894,0.06318160801746231,-0.14542986248666057,0,70,255.0,255.0,255.0
210,10.5,3.3828,-0.6823,-11.3709,0.10531732509288046,0.63869154590392,-1.481541876443666,0.009543947019864052,0.06325546919661384,-0.14347213889267252,0,70,255.0,255.0,255.0
211,10.55,3.388077575551478,-0.6502867503274148,-11.44515588220819,0.10578128422743013,0.641830501817331,-1.4886823761316692,0.00901441836212286,0.062302767339829035,-0.14214784862744664,0,70,255.0,255.0,255.0
212,10.600000000000001,3.393377687148862,-0.61811774373648,-11.519767134037949,0.10621876692909277,0.644921822637903,-1.495756661306411,0.008484889704381667,0.06135006548304422,-0.14082355836222074,0,70,255.0,255.0,255.0
213,10.65,3.3986990109705064,-0.5857953619818387,-11.59473044476361,0.1066297731978683,0.6479655083656355,-1.5027647319678912,0.007955361046640493,0.06039736362625944,-0.1394992680969949,0,70,255.0,255.0,255.0
214,10.700000000000001,3.4040402231947673,-0.5533219868181306,-11.670042503659516,0.10701430303375681,0.6509615590005289,-1.5097065881161102,0.0074258323888993,0.05944466176947463,-0.13817497783176902,0,70,255.0,255.0,255.0
215,10.75,3.4094,-0.5207,-11.7457,0.10737235643675822,0.6539099745425829,-1.516582229751068,0.0068963037311580155,0.058491959912688074,-0.13685068756653607,0,70,255.0,255.0,255.0
216,10.8,3.4147775694126956,-0.4879314292620429,-11.821699997715617,0.10773704429493772,0.6568319961944171,-1.5234141362457687,0.007691210596021902,0.05838890616067829,-0.1364255722214871,0,70,255.0,255.0,255.0
217,10.850000000000001,3.4201743668518816,-0.4550168862586841,-11.898041059361791,0.10814147749636041,0.6597488651586508,-1.530224786973217,0.00848611746088579,0.0582858524086685,-0.13600045687643814,0,70,255.0,255.0,255.0
218,10.9,3.4255923795847196,-0.4219566286243048,-11.974722122150151,0.1085856560410263,0.662660581435284,-1.5370141819334124,0.009281024325749648,0.058182798656658714,-0.13557534153138917,0,70,255.0,255.0,255.0
219,10.950000000000001,3.4310335948783717,-0.3887509139932826,-12.051742123292344,0.10906957992893539,0.6655671450243167,-1.5437823211263557,0.010075931190613535,0.05807974490464893,-0.1351502261863402,0,70,255.0,255.0,255.0
220,11.0,3.4365,-0.3554,-12.1291,0.10959324916008763,0.6684685559257488,-1.5505292045520465,0.010870838055477283,0.05797669115263737,-0.1347251108412877,0,70,255.0,255.0,255.0
221,11.05,3.4419929467977397,-0.3219043326244109,-12.206793726929341,0.11011853859281875,0.6713535134050014,-1.557197078885246,0.01014073925376714,0.05742160801746045,-0.1319898624866951,0,70,255.0,255.0,255.0
222,11.100000000000001,3.4475112454436143,-0.28826511122877824,-12.284817428514897,0.11060732308546435,0.674210716727495,-1.5637281908007161,0.009410640452056997,0.056866524882283526,-0.12925461413210249,0,70,255.0,255.0,255.0
223,11.15,3.453053070690618,-0.25448372352094095,-12.363164266635783,0.11105960263802445,0.6770401658932297,-1.5701225402984564,0.00868054165034688,0.05631144174710662,-0.12651936577751,0,70,255.0,255.0,255.0
224,11.200000000000001,3.4586165972917486,-0.22056155720873483,-12.441827403171114,0.11147537725049904,0.6798418609022056,-1.576380127378467,0.007950442848636736,0.0557563586119297,-0.12378411742291741,0,70,255.0,255.0,255.0
225,11.25,3.4642,-0.1865,-12.5208,0.11185464692288812,0.6826158017544225,-1.5825009520407483,0.007220344046925731,0.055201275476744804,-0.12104886906833023,0,70,255.0,255.0,255.0
226,11.3,3.469801843396346,-0.1523008402403105,-12.600076294567026,0.11222080133378395,0.685337950185578,-1.5885495482132501,0.007425832388907397,0.05368466176947011,-0.12089497783174004,0,70,255.0,255.0,255.0
227,11.350000000000001,3.4754222513736632,-0.1179674688261973,-12.679654826578629,0.11259723016177886,0.6879842679313697,-1.5945904498239225,0.007631320730889063,0.05216804806219542,-0.12074108659514983,0,70,255.0,255.0,255.0
228,11.4,3.4810617376528086,-0.08350367729192985,-12.75953521130672,0.11298393340687285,0.6905547549917974,-1.600623656872765,0.007836809072870722,0.050651434354920775,-0.12058719535855963,0,70,255.0,255.0,255.0
229,11.450000000000001,3.4867208159546355,-0.04891325717177387,-12.839717064023207,0.11338091106906593,0.6930494113668616,-1.6066491693597784,0.008042297414852389,0.049134820647646085,-0.12043330412196944,0,70,255.0,255.0,255.0
230,11.5,3.4924,-0.0142,-12.9202,0.11378816314835807,0.695468237056562,-1.6126669872849622,0.008247785756833936,0.047618206940371444,-0.12027941288538813,0,70,255.0,255.0,255.0
231,11.55,3.4980996796168777,0.020633293585655844,-13.000982694802564,0.11419825607204438,0.6978706858526876,-1.6186207282617555,0.00815593119061808,0.048479744904650894,-0.11787022618634634,0,70,255.0,255.0,255.0
232,11.600000000000001,3.5038197490617327,0.05558778653357332,-13.082060065170594,0.11460375626741989,0.7003162115470272,-1.624454009903597,0.008064076624402224,0.04934128286893034,-0.11546103948730455,0,70,255.0,255.0,255.0
233,11.65,3.509559978698148,0.09066563268866187,-13.16342608813734,0.1150046637344846,0.7028048141395806,-1.630166832210486,0.007972222058186373,0.05020282083320975,-0.11305185278826285,0,70,255.0,255.0,255.0
234,11.700000000000001,3.515320138889709,0.12586898589583467,-13.245074740736058,0.11540097847323852,0.7053364936303482,-1.6357591951824233,0.007880367491970517,0.051064358797489204,-0.11064266608922106,0,70,255.0,255.0,255.0
235,11.75,3.5211,0.1612,-13.327,0.11579270048368166,0.7079112500193295,-1.641231098819408,0.007788512925754998,0.05192589676176507,-0.10823347939017225,0,70,255.0,255.0,255.0
236,11.8,3.5268994381361427,0.1966596658976901,-13.409196926222723,0.11618617437804124,0.7104593064036718,-1.6466475387397355,0.007950442848627962,0.0499963586119241,-0.10842411742291773,0,70,255.0,255.0,255.0
237,11.850000000000001,3.5327187523794072,0.23224432269191,-13.491664912739004,0.11658774476854447,0.712910885880522,-1.6520735105617002,0.008112372771500924,0.04806682046208314,-0.10861475545566322,0,70,255.0,255.0,255.0
238,11.9,3.5385583475545994,0.2679491465372838,-13.574404436143919,0.11699741165519133,0.7152659884498801,-1.6575090142853017,0.008274302694373882,0.04613728231224224,-0.1088053934884087,0,70,255.0,255.0,255.0
239,11.950000000000001,3.544418628486528,0.3037693135884395,-13.65741597303256,0.11741517503798185,0.7175246141117462,-1.6629540499105409,0.008436232617246846,0.04420774416240128,-0.10899603152115418,0,70,255.0,255.0,255.0
240,12.0,3.5503,0.3397,-13.7407,0.11784103491691601,0.7196867628661202,-1.668408617437417,0.00859816254011958,0.042278206012558606,-0.10918666955389966,0,70,255.0,255.0,255.0
241,12.05,3.556202567838552,0.37573764282358685,-13.82425600030655,0.11825704641579031,0.7218280885326254,-1.673813116779313,0.00804229741485211,0.043374820647646764,-0.10699330412193857,0,70,255.0,255.0,255.0
242,12.100000000000001,3.5621252414206412,0.4118837226987928,-13.908079483873406,0.11864526465840122,0.7240242449308849,-1.6791079478496111,0.007486432289584639,0.04447143528273492,-0.10479993868997746,0,70,255.0,255.0,255.0
243,12.15,3.5680666310834543,0.4481409811622043,-13.992164967286985,0.11900568964474878,0.7262752320608988,-1.6842931106483108,0.006930567164317188,0.045568049917823046,-0.10260657325801643,0,70,255.0,255.0,255.0
244,12.200000000000001,3.574025347164179,0.4845121597504117,-14.076506967133712,0.11933832137483295,0.7285810499226673,-1.6893686051754127,0.006374702039049717,0.046664664552911204,-0.10041320782605534,0,70,255.0,255.0,255.0
245,12.25,3.58,0.521,-14.1611,0.11964315984865373,0.7309416985161901,-1.6943344314309166,0.005818836913781489,0.04776127918800199,-0.09821984239409254,0,70,255.0,255.0,255.0
246,12.3,3.5859894905096494,0.5576057628079657,-14.24593907255108,0.11993763995879765,0.7332683394658274,-1.6992199941430002,0.005960367491974996,0.04530435879748712,-0.0972026660892478,0,70,255.0,255.0,255.0
247,12.350000000000001,3.591993881938029,0.594324786512925,-14.33102115176738,0.12023919659785123,0.7354721343959388,-1.7040546980398414,0.006101898070168503,0.04284743840697225,-0.09618548978440306,0,70,255.0,255.0,255.0
248,12.4,3.598013528111583,0.6311509288139006,-14.416343694708141,0.1205478297658145,0.7375530833065245,-1.7088385431214406,0.006243428648362005,0.04039051801645746,-0.09516831347955836,0,70,255.0,255.0,255.0
249,12.450000000000001,3.6040487828567582,0.6680780474099184,-14.501904158432604,0.12086353946268744,0.7395111861975846,-1.713571529387797,0.006384959226555512,0.03793359762594259,-0.09415113717471361,0,70,255.0,255.0,255.0
250,12.5,3.6101,0.7051,-14.5877,0.12118632568847004,0.7413464430691188,-1.7182536568389115,0.00652648980474857,0.035476677235434906,-0.09313396086987424,0,70,255.0,255.0,255.0
251,12.55,3.6161674701228517,0.7422121059445537,-14.67372850948914,0.12151239374901983,0.7431465536040648,-1.7228749066486875,0.006516232617242678,0.03652774416240378,-0.09171603152116388,0,70,255.0,255.0,255.0
252,12.600000000000001,3.622251230827246,0.7794155312495133,-14.75998630905708,0.12183794895019431,0.7449992174853592,-1.727425259991028,0.006505975429736788,0.03757881108937265,-0.09029810217245351,0,70,255.0,255.0,255.0
253,12.65,3.6283512564702147,0.8167129035821951,-14.84646985388045,0.1221629912919935,0.746904434713002,-1.731904716865933,0.006495718242230897,0.03862987801634149,-0.08888017282374319,0,70,255.0,255.0,255.0
254,12.700000000000001,3.6344675214087894,0.854106850609919,-14.933175599135883,0.12248752077441741,0.7488622052869934,-1.7363132772734022,0.006485461054725005,0.039680944943310356,-0.08746224347503283,0,70,255.0,255.0,255.0
255,12.75,3.6406,0.8916,-15.0201,0.122811537397466,0.750872529207333,-1.7406509412134363,0.006475203867218449,0.04073201187027742,-0.08604431412632785,0,70,255.0,255.0,255.0
256,12.8,3.646748628998946,0.9291938134138229,-15.107239689492372,0.1231327850451227,0.7528654461179128,-1.7449283792622459,0.006374702039049172,0.038984664552913606,-0.08505320782605742,0,70,255.0,255.0,255.0
257,12.850000000000001,3.652913194752989,0.9668850884890278,-15.194592012004309,0.12344900760137092,0.7547709956626245,-1.7491562619960423,0.006274200210879896,0.03723731723554979,-0.08406210152578698,0,70,255.0,255.0,255.0
258,12.9,3.6590934460075593,1.0046694568573205,-15.282154489770058,0.12376020506621067,0.7565891778414678,-1.7533345894148247,0.006173698382710624,0.03548996991818604,-0.08307099522551659,0,70,255.0,255.0,255.0
259,12.950000000000001,3.6652891315080867,1.04254255015041,-15.369924645023874,0.12406637743964198,0.758319992654443,-1.7574633615185937,0.006073196554541347,0.03374262260082222,-0.08207988892524616,0,70,255.0,255.0,255.0
260,13.0,3.6715,1.0805,-15.4579,0.1243675247216648,0.7599634401015501,-1.7615425783073495,0.005972694726371741,0.03199527528345758,-0.08108878262497754,0,70,255.0,255.0,255.0
261,13.05,3.677726013881366,1.1185382404001583,-15.54607753254138,0.12467646607048799,0.7615676619242853,-1.7655395763023418,0.006384959226555404,0.032173597625943455,-0.07879113717471495,0,70,255.0,255.0,255.0
262,13.100000000000001,3.6839679901607987,1.1566569147943817,-15.634452042925695,0.12500602064432034,0.7631807998641446,-1.7694216920248211,0.006797223726739066,0.03235191996842933,-0.07649349172445234,0,70,255.0,255.0,255.0
263,13.15,3.6902269594995483,1.1948564689885246,-15.723017787039318,0.12535618844316188,0.7648028539211281,-1.7731889254747872,0.007209488226922714,0.03253024231091519,-0.07419584627418983,0,70,255.0,255.0,255.0
264,13.200000000000001,3.6965039525588654,1.2331373487884463,-15.811769020768631,0.12572696946701264,0.7664338240952361,-1.7768412766522401,0.007621752727106377,0.032708564653401065,-0.07189820082392723,0,70,255.0,255.0,255.0
265,13.25,3.7028,1.2715,-15.9007,0.12611836371587254,0.7680737103864682,-1.78037874555718,0.008034017227289691,0.0328868869958816,-0.0696005553736665,0,70,255.0,255.0,255.0
266,13.3,3.709115315475589,1.309944424985547,-15.98980618034212,0.1264813506729231,0.7696959061849479,-1.783873315528396,0.006485461054733111,0.03200094494330211,-0.07018224347497332,0,70,255.0,255.0,255.0
267,13.350000000000001,3.7154468446038154,1.348468852333452,-16.079087816292926,0.12676690982134584,0.7712738048807984,-1.7873969699046774,0.00493690488217653,0.031115002890722616,-0.07076393157628014,0,70,255.0,255.0,255.0
268,13.4,3.721790715994247,1.3870710671885826,-16.16854636207267,0.12697504116114078,0.7728074064740201,-1.7909497086860242,0.0033883487096200036,0.030229060838143158,-0.07134561967758693,0,70,255.0,255.0,255.0
269,13.450000000000001,3.728143058256452,1.4257488546958101,-16.25818327190161,0.12710574469230784,0.7742967109646128,-1.794531531872436,0.001839792537063423,0.029343118785563664,-0.07192730777889375,0,70,255.0,255.0,255.0
270,13.5,3.7345,1.4645,-16.348,0.12715902041484708,0.7757417183525763,-1.7981424394639134,0.000291236364506231,0.028457176732983314,-0.07250899588019344,0,70,255.0,255.0,255.0
271,13.55,3.7408591242162776,1.503322459657657,-16.437996146090146,0.12722213123782308,0.7771527133359216,-1.801671161584052,0.0022331965545330065,0.02798262260082857,-0.06863988892534424,0,70,255.0,255.0,255.0
272,13.600000000000001,3.747223831423941,1.5422148758718164,-16.528163891902608,0.1273823400703004,0.7785399806126592,-1.8050064283564478,0.004175156744559782,0.027508068468673826,-0.06477078197049504,0,70,255.0,255.0,255.0
273,13.65,3.753598976523466,1.581176062257146,-16.618493564669993,0.12763964691227903,0.779903520182789,-1.8081482397811013,0.006117116934586489,0.027033514336519102,-0.06090167501564598,0,70,255.0,255.0,255.0
274,13.700000000000001,3.7599894144153274,1.6202048324283183,-16.708975491624926,0.12799405176375903,0.7812433320463111,-1.8110965958580125,0.008059077124613265,0.02655896020436436,-0.057032568060796776,0,70,255.0,255.0,255.0
275,13.75,3.7664,1.6593,-16.7996,0.12844555462474036,0.7825594162032256,-1.813851496587181,0.010001037314639971,0.02608440607221052,-0.05316346110594061,0,70,255.0,255.0,255.0
276,13.8,3.772833787659302,1.6984601363838276,-16.890359635297294,0.12888612437578403,0.7838372404713658,-1.8165460381354261,0.0076217527271064,0.02502856465339976,-0.05461820082386561,0,70,255.0,255.0,255.0
277,13.850000000000001,3.7792866297004224,1.7376828441792886,-16.981255816096642,0.129207729897451,0.7850622726685655,-1.8193133166695676,0.00524246813957283,0.023972723234589002,-0.056072940541790614,0,70,255.0,255.0,255.0
278,13.9,3.785752577911891,1.7769654837828348,-17.07229217924735,0.1294103711897413,0.7862345127948247,-1.8221533321896053,0.002863183552039344,0.022916881815778282,-0.057527680259715566,0,70,255.0,255.0,255.0
279,13.950000000000001,3.79222568408224,1.816305415590922,-17.163472361598703,0.12949404825265495,0.7873539608501433,-1.825066084695539,0.0004838989645057738,0.021861040396967523,-0.05898241997764056,0,70,255.0,255.0,255.0
280,14.0,3.7987,1.8557,-17.2548,0.1294587610861919,0.7884206168345215,-1.8280515741873693,-0.001895385623027268,0.02080519897815325,-0.06043715969556551,0,70,255.0,255.0,255.0
281,14.05,3.8051713251465147,1.8951473948070356,-17.34627651272069,0.1294093712590429,0.7894823247786144,-1.83097668587423,-8.020746293226555e-05,0.021663118785562055,-0.05656730777885984,0,70,255.0,255.0,255.0
282,14.100000000000001,3.811642449774371,1.9346489474110353,-17.43789444371083,0.12945074033989867,0.7905869287130777,-1.8337083049652554,0.001734970697162737,0.022521038592970857,-0.05269745586215417,0,70,255.0,255.0,255.0
283,14.15,3.818117911828971,1.974206802611516,-17.529644118340617,0.12958286832875918,0.7917344286379114,-1.8362464314604454,0.003550148857257675,0.02337895840037963,-0.04882760394544865,0,70,255.0,255.0,255.0
284,14.200000000000001,3.824602249255714,2.013823105207999,-17.621515861980274,0.12980575522562446,0.7929248245531156,-1.8385910653598,0.005365327017352678,0.024236878207788432,-0.04495775202874298,0,70,255.0,255.0,255.0
285,14.25,3.8311,2.0535,-17.7135,0.13011940103049444,0.7941581164586904,-1.8407422066633194,0.007180505177447616,0.02509479801519454,-0.04108790011203922,0,70,255.0,255.0,255.0
286,14.3,3.837614511754641,2.093238284388033,-17.80558871381995,0.13045239058804564,0.7953534604141793,-1.842811218367643,0.006139077124600541,0.022718960204360494,-0.04167256806089981,0,70,255.0,255.0,255.0
287,14.350000000000001,3.8441443712020944,2.1330333661765764,-17.89778160906006,0.1307333087429545,0.7964300124791265,-1.8449094634694094,0.005097649071753467,0.020343122393526446,-0.042257236009760404,0,70,255.0,255.0,255.0
288,14.4,3.850686974772226,2.172879305771103,-17.990080147390184,0.130962155495221,0.7973877726535319,-1.8470369419686188,0.004056221018906429,0.017967284582692485,-0.04284190395862098,0,70,255.0,255.0,255.0
289,14.450000000000001,3.8572397188949057,2.2127701635770873,-18.08248579048021,0.13113893084484513,0.7982267409373957,-1.8491936538652716,0.0030147929660593546,0.015591446771858435,-0.04342657190748157,0,70,255.0,255.0,255.0
290,14.5,3.8638,2.2527,-18.175,0.13126363479182696,0.7989469173307177,-1.8513795991593671,0.0019733649132134268,0.01321560896102536,-0.04401123985633859,0,70,255.0,255.0,255.0
291,14.55,3.8703658278349207,2.292664267640836,-18.26762303199951,0.13137306638877028,0.7996318335646675,-1.8535224406552142,0.0024038989645188973,0.014181040396968405,-0.04170241997754257,0,70,255.0,255.0,255.0
292,14.600000000000001,3.8769376654172536,2.3326639878826647,-18.36035032004896,0.13150402468827885,0.8003650213704145,-1.8555498411571214,0.0028344330158243678,0.015146471832911452,-0.03939360009874655,0,70,255.0,255.0,255.0
293,14.65,3.883516589082125,2.372701574304074,-18.453176092098655,0.1316565096903527,0.8011464807479586,-1.8574618006650887,0.003264967067129823,0.016111903268854463,-0.03708478021995061,0,70,255.0,255.0,255.0
294,14.700000000000001,3.8901036751646645,2.4127794404836567,-18.546094576098902,0.13183052139499182,0.8019762116972999,-1.8592583191791163,0.003695501118435294,0.017077334704797508,-0.03477596034115459,0,70,255.0,255.0,255.0
295,14.75,3.8967,2.4529,-18.6391,0.13202605980219626,0.8028542142184385,-1.860939396699204,0.004126035169740527,0.018042766140743183,-0.03246714046235333,0,70,255.0,255.0,255.0
296,14.8,3.903306176905675,2.4930646450486265,-18.732187158182025,0.1322153438568737,0.803719205327152,-1.8625390190114823,0.00344532701735666,0.016556878207793325,-0.03151775202877366,0,70,255.0,255.0,255.0
297,14.850000000000001,3.909920967128894,2.533270682292772,-18.825353110744125,0.13237059250393193,0.8045099020392179,-1.8640911719020814,0.002764618864972793,0.015070990274843467,-0.03056836359519399,0,70,255.0,255.0,255.0
298,14.9,3.916542668899275,2.573514397012604,-18.918595484215206,0.13249180574337097,0.8052263043546363,-1.8655958553710017,0.0020839107125889497,0.013585102341893663,-0.029618975161614353,0,70,255.0,255.0,255.0
299,14.950000000000001,3.9231695804464377,2.6137920744882917,-19.011911905124194,0.13257898357519082,0.8058684122734072,-1.8670530694182428,0.0014032025602050825,0.012099214408943806,-0.02866958672803468,0,70,255.0,255.0,255.0
300,15.0,3.9298,2.6541,-19.1053,0.13263212599939148,0.8064362257955306,-1.868462814043805,0.0007224944078216833,0.010613326475995777,-0.027720198294440834,0,70,255.0,255.0,255.0
301,15.05,3.936432664542379,2.6944347521646623,-19.198757135272402,0.1326775581837382,0.8069473451267267,-1.869809483298854,0.0010947929660476028,0.00983144677184632,-0.02614657190751577,0,70,255.0,255.0,255.0
302,15.100000000000001,3.943068066067173,2.734794082946254,-19.292279636974566,0.1327416052959962,0.8074193704727153,-1.8710774712345566,0.0014670915242735222,0.009049567067696862,-0.024572945520590705,0,70,255.0,255.0,255.0
303,15.15,3.949707135320777,2.7751760376455135,-19.38586357104053,0.13282426733616556,0.8078523018334964,-1.872266777850913,0.0018393900824994285,0.008267687363547433,-0.022999319133665697,0,70,255.0,255.0,255.0
304,15.200000000000001,3.9563508030495877,2.8155786615631833,-19.479505003404334,0.1329255443042462,0.80824613920907,-1.8733774031479233,0.0022116886407253476,0.007485807659397975,-0.02142569274674063,0,70,255.0,255.0,255.0
305,15.25,3.963,2.856,-19.5732,0.1330454362002381,0.8086008825994363,-1.8744093471255872,0.00258398719895081,0.006703927955254763,-0.019852066359815623,0,70,255.0,255.0,255.0
306,15.3,3.9696551649248106,2.896438746292729,-19.666945100728388,0.13315442340817285,0.8089554141659377,-1.8753910477931106,0.001775501118439526,0.007477334704806016,-0.019415960341121866,0,70,255.0,255.0,255.0
307,15.350000000000001,3.976314768602417,2.9368961859222193,-19.76073874135763,0.13322298631208204,0.8093486160699169,-1.8763509431596994,0.000967015037928242,0.00825074145435727,-0.018979854322428113,0,70,255.0,255.0,255.0
308,15.4,3.9829767898176183,2.977374252405345,-19.854579831622676,0.13325112491196567,0.8097804883113735,-1.8772890332253533,0.00015852895741698663,0.009024148203908493,-0.018543748303734373,0,70,255.0,255.0,255.0
309,15.450000000000001,3.989639207355213,3.017874879258981,-19.948467281258488,0.13323883920782376,0.8102510308903078,-1.8782053179900728,-0.0006499571230942974,0.009797554953459747,-0.018107642285040616,0,70,255.0,255.0,255.0
310,15.5,3.9963,3.0584,-20.0424,0.13318612919965625,0.8107602438067196,-1.8790997974538577,-0.001458443203606441,0.010570961703008308,-0.017671536266341548,0,70,255.0,255.0,255.0
311,15.55,4.00295787575838,3.098950262664426,-20.136376061814055,0.13313674818357132,0.8112309982095186,-1.8799223255287159,-0.0005167974397905039,0.008259214408950622,-0.015229586727988896,0,70,255.0,255.0,255.0
312,15.600000000000001,4.009614459523161,3.1395211733648747,-20.230390197594925,0.1331344494556772,0.8115861652476146,-1.8806227561266566,0.00042484832402543324,0.005947467114892936,-0.012787637189636245,0,70,255.0,255.0,255.0
313,15.65,4.016272105408751,3.1801069527331087,-20.324436302468772,0.13317923301597387,0.8118257449210079,-1.8812010892476796,0.0013664940878413369,0.003635719820835332,-0.010345687651283679,0,70,255.0,255.0,255.0
314,15.700000000000001,4.022933167529561,3.2207018214008962,-20.418508271561745,0.13327109886446134,0.8119497372296982,-1.881657324891785,0.0023081398516572736,0.0013239725267776455,-0.007903738112931028,0,70,255.0,255.0,255.0
315,15.75,4.0296,3.2613,-20.5126,0.1334100470011396,0.8119581421736856,-1.8819914630589727,0.0032497856154731775,-0.0009877747672826231,-0.005461788574574911,0,70,255.0,255.0,255.0
316,15.8,4.036274132041671,3.3018970030495702,-20.606705852015406,0.13354658385754414,0.8119285929959885,-1.8822316500920067,0.0022116886407082723,-0.00019419234059813145,-0.004145692746780564,0,70,255.0,255.0,255.0
317,15.850000000000001,4.042953793304943,3.3424935206182886,-20.70082206826268,0.1336312158652104,0.8119387229396258,-1.8824060323336507,0.0011735916659433672,0.0005993900860863603,-0.002829596918986217,0,70,255.0,255.0,255.0
318,15.9,4.049636388547379,3.383091536662221,-20.794945358502247,0.13366394302413848,0.8119885320045972,-1.8825146097839052,0.00013549469117849844,0.0013929725127708238,-0.0015135010911919173,0,70,255.0,255.0,255.0
319,15.950000000000001,4.0563193225265435,3.423693035137437,-20.889072432494547,0.13364476533432829,0.8120780201909028,-1.88255738244277,-0.0009026022835864067,0.0021865549394553155,-0.00019740526339757057,0,70,255.0,255.0,255.0
320,16.0,4.063,3.4643,-20.9832,0.13357368279577986,0.8122071874985426,-1.882534350310245,-0.001940699258351497,0.002980137366138891,0.0011186905643931766,0,70,255.0,255.0,255.0
321,16.05,4.069676796074939,3.5049137251372966,-21.077325330124328,0.13350891638624413,0.8123346298065324,-1.8824790741032624,-0.0006499571230777861,0.0021175549534522154,0.0010923577149135606,0,70,255.0,255.0,255.0
322,16.1,4.076351967257071,3.545532744161977,-21.17144792935437,0.13350868708347208,0.8124189429938878,-1.8824251145387536,0.0006407850121959249,0.0012549725407655398,0.0010660248654339448,0,70,255.0,255.0,255.0
323,16.150000000000002,4.0830287404017325,3.58615490061801,-21.26556786352225,0.13357299488746371,0.812460127060609,-1.8823724716167187,0.0019315271474696356,0.0003923901280788642,0.0010396920159543288,0,70,255.0,255.0,255.0
324,16.2,4.0897103423642625,3.6267780380493595,-21.35968519846008,0.13370183979821904,0.8124581820066956,-1.8823211453371582,0.003222269282743255,-0.00047019228460775005,0.0010133591664747148,0,70,255.0,255.0,255.0
325,16.25,4.0964,3.6674,-21.4538,0.13389522181573804,0.8124131078321483,-1.8822711357000717,0.004513011418016966,-0.0013327746972953136,0.0009870263169933224,0,70,255.0,255.0,255.0
326,16.3,4.103099483658574,3.708018496401247,-21.547911227487287,0.1340657505974801,0.812316887777885,-1.8821560534949673,0.0023081398516657933,-0.002516027473232735,0.00361626188718102,0,70,255.0,255.0,255.0
327,16.35,4.109804737666776,3.74863070273381,-21.64201341431986,0.13412603580090462,0.812161505084825,-1.8819095095113534,0.000103268285314621,-0.0036992802491701564,0.006245497457368718,0,70,255.0,255.0,255.0
328,16.400000000000002,4.1165102498456925,3.789233660865751,-21.736099987408785,0.13407607742601158,0.811946959752968,-1.8815315037492304,-0.0021016032810365513,-0.004882533025107577,0.008874733027556415,0,70,255.0,255.0,255.0
329,16.45,4.123210508016404,3.829824412665125,-21.830164373665134,0.13391587547280098,0.8116732517823143,-1.8810220362085979,-0.0043064748473875675,-0.006065785801044915,0.011503968597743925,0,70,255.0,255.0,255.0
330,16.5,4.1299,3.8704,-21.9242,0.13364542994127282,0.8113403811728636,-1.880381106889456,-0.006511346413738295,-0.007249038576985889,0.014133204167931623,0,70,255.0,255.0,255.0
331,16.55,4.136574869290767,3.9109578892577215,-22.018200959926524,0.13336408122383908,0.8109738190819256,-1.8796487119168437,-0.0047426022836112944,-0.007413445060532989,0.015162594736565553,0,70,255.0,255.0,255.0
332,16.6,4.143237882075826,3.951497244902791,-22.11216401336621,0.13317116971291168,0.8105990366668102,-1.8788648474157994,-0.002973858153484293,-0.0075778515440800874,0.016191985305199483,0,70,255.0,255.0,255.0
333,16.650000000000002,4.149893460215502,3.9920176559190006,-22.206086586842634,0.13306669540849064,0.8102160339275175,-1.8780295133863236,-0.001205114023357292,-0.007742258027627187,0.017221375873833412,0,70,255.0,255.0,255.0
334,16.7,4.156546025570116,4.0325187112901375,-22.299966106879367,0.13305065831057594,0.8098248108640476,-1.8771427098284161,0.0005636301067695826,-0.007906664511174276,0.018250766442467266,0,70,255.0,255.0,255.0
335,16.75,4.1632,4.073,-22.3938,0.1331230584191676,0.8094253674764001,-1.8762044367420772,0.002332374236896584,-0.008071070994721374,0.01928015701109942,0,70,255.0,255.0,255.0
336,16.8,4.169858639178356,4.113461146567873,-22.48758573280661,0.13321392450715913,0.8090198358944167,-1.8752170988376407,0.0013022692827646973,-0.008150192284614556,0.020213359166360346,0,70,255.0,255.0,255.0
337,16.85,4.176520534029921,4.153901917655036,-22.581320932215302,0.13325328534744407,0.8086103482479386,-1.8741831008254413,0.0002721643286328107,-0.008229313574507737,0.021146561321621276,0,70,255.0,255.0,255.0
338,16.900000000000002,4.1831831092923055,4.19432211545826,-22.675003265220692,0.1332411409400224,0.8081969045369659,-1.8731024427054785,-0.0007579406254990756,-0.008308434864400919,0.022079763476882203,0,70,255.0,255.0,255.0
339,16.95,4.1898437897031275,4.234721542174321,-22.768630398817383,0.1331774912848942,0.8077795047614986,-1.871975124477753,-0.0017880455796308887,-0.008387556154294094,0.023012965632143067,0,70,255.0,255.0,255.0
340,17.0,4.1965,4.2751,-22.8622,0.13306233638205933,0.8073581489215367,-1.8708011461422642,-0.0028181505337627755,-0.008466677444186388,0.02394616778740044,0,70,255.0,255.0,255.0
341,17.05,4.203149773995806,4.31545672447079,-22.955709708847042,0.13293222074753047,0.8068988373404059,-1.8695788927326331,-0.002386474847391889,-0.009905785801046127,0.02494396859784801,0,70,255.0,255.0,255.0
342,17.1,4.209793581804492,4.355788684477078,-23.049157057772593,0.13282368889732013,0.806367570341432,-1.8683067492824794,-0.001954799161021002,-0.011344894157905868,0.025941769408295585,0,70,255.0,255.0,255.0
343,17.150000000000002,4.216432502615277,4.396092282247971,-23.142539552274616,0.13273674083142836,0.8057643479246153,-1.8669847157918036,-0.001523123474650116,-0.012784002514765608,0.02693957021874316,0,70,255.0,255.0,255.0
344,17.2,4.2230676156173725,4.436363920012574,-23.235854697851092,0.1326713765498551,0.8050891700899555,-1.865612792260605,-0.00109144778827926,-0.014223110871625245,0.02793737102919066,0,70,255.0,255.0,255.0
345,17.25,4.2297,4.4766,-23.3291,0.13262759605260044,0.8043420368374526,-1.8641909786888844,-0.0006597721019083735,-0.015662219228485874,0.028935171839634677,0,70,255.0,255.0,255.0
346,17.3,4.236330264838423,4.51679755554897,-23.422272231805227,0.13257719250272165,0.8035608147439611,-1.862675330231831,-0.00135636989324298,-0.01558666451117343,0.031690766442501725,0,70,255.0,255.0,255.0
347,17.35,4.242957138752113,4.556956144436662,-23.515365236694354,0.13249195906327615,0.8027833703863353,-1.8610219020446341,-0.0020529676845775866,-0.015511109793860986,0.034446361045368766,0,70,255.0,255.0,255.0
348,17.400000000000002,4.249578880246592,4.597075955549869,-23.60837212568086,0.1323718957342639,0.802009703764575,-1.859230694127294,-0.002749565475912193,-0.015435555076548544,0.037201955648235814,0,70,255.0,255.0,255.0
349,17.45,4.256193747827379,4.637157177775382,-23.701286009778237,0.13221700251568494,0.8012398148786806,-1.8573017064798107,-0.0034461632672467503,-0.015360000359236105,0.03995755025110266,0,70,255.0,255.0,255.0
350,17.5,4.2628,4.6772,-23.7941,0.13202727940753925,0.8004737037286515,-1.8552349391021838,-0.004142761058580691,-0.015284445641927213,0.04271314485396971,0,70,255.0,255.0,255.0
351,17.55,4.269396366650504,4.7172042533333345,-23.886808563932053,0.13183100924158406,0.7996899036837459,-1.8531117863400322,-0.0037080455796262893,-0.016067556154293616,0.042212965632097615,0,70,255.0,255.0,255.0
352,17.6,4.275983463187059,4.757168337776282,-23.979411595450024,0.13165647484957663,0.798866948113222,-1.851013642538974,-0.0032733301006718884,-0.01685066666666002,0.04171278641022552,0,70,255.0,255.0,255.0
353,17.650000000000002,4.28256237639836,4.7970902955525645,-24.07191034500197,0.13150367623151688,0.7980048370170799,-1.8489405076990095,-0.002838614621717487,-0.017633777179026422,0.04121260718835342,0,70,255.0,255.0,255.0
354,17.7,4.289134193073108,4.836968168885894,-24.16430606303594,0.13137261338740489,0.7971035703953194,-1.8468923818201388,-0.0024038991427631166,-0.01841688769139277,0.04071242796648136,0,70,255.0,255.0,255.0
355,17.75,4.2957,4.8768,-24.2566,0.13126328631724057,0.7961631482479405,-1.8448692649023617,-0.0019691836638082716,-0.01919999820376006,0.04021224874461815,0,70,255.0,255.0,255.0
356,17.8,4.3022602685595634,4.916583831117698,-24.348791912466567,0.1311387705309385,0.7951835705210558,-1.8427815244080172,-0.0030114477882747497,-0.019983110871628906,0.043297371029158115,0,70,255.0,255.0,255.0
357,17.85,4.308813008499658,4.956317704458217,-24.440875581505566,0.1309621415384131,0.7941648371607776,-1.8405395277994459,-0.004053711912741228,-0.020766223539497752,0.04638249331369808,0,70,255.0,255.0,255.0
358,17.900000000000002,4.3153556141599685,4.995999662239887,-24.53284329431128,0.13073339933966438,0.793106948167106,-1.8381432750766473,-0.005095976037207706,-0.0215493362073666,0.04946761559823804,0,70,255.0,255.0,255.0
359,17.95,4.321885479880185,5.035627746681036,-24.62468733807799,0.13045254393469233,0.792009903540041,-1.835592766239622,-0.0061382401616741095,-0.02233244887523539,0.05255273788277779,0,70,255.0,255.0,255.0
360,18.0,4.3284,5.0752,-24.7164,0.130119575323497,0.7908737032795825,-1.83288800128837,-0.007180504286140366,-0.023115561543104235,0.05563786016732308,0,70,255.0,255.0,255.0
361,18.05,4.334897759111241,5.114714822195877,-24.807974986201675,0.12980590863466243,0.789719814232024,-1.8301141160279084,-0.0053661632672419935,-0.0230400003592365,0.055317550251136535,0,70,255.0,255.0,255.0
362,18.1,4.3413821028143165,5.154172044390857,-24.899411678527724,0.12958295899677277,0.7885697032436588,-1.8273562462632562,-0.003551822248343621,-0.022964439175368764,0.05499724033494998,0,70,255.0,255.0,255.0
363,18.150000000000002,4.3478575669617685,5.193571855487897,-24.990710877752935,0.12945072640982808,0.7874233703144871,-1.8246143919944133,-0.0017374812294452483,-0.02288887799150103,0.05467693041876343,0,70,255.0,255.0,255.0
364,18.2,4.354328687406147,5.232914444389957,-25.08187338465209,0.12940921087382826,0.7862808154445088,-1.82188855322138,7.685978945299547e-05,-0.0228133168076333,0.054356620502576905,0,70,255.0,255.0,255.0
365,18.25,4.3608,5.2722,-25.1729,0.12945841238877334,0.7851420386337239,-1.8191787299441555,0.0018912008083498133,-0.022737755623764677,0.054036310586395686,0,70,255.0,255.0,255.0
366,18.3,4.36727429499547,5.311428080098796,-25.26379054272673,0.12949359493041246,0.7839691725508452,-1.8164260114803343,-0.0004838991427850276,-0.024176887691380444,0.056072427966448075,0,70,255.0,255.0,255.0
367,18.35,4.373747380243083,5.350595717978362,-25.35454090438355,0.12941002247449485,0.7827243498645858,-1.8135714871475106,-0.0028589990939198685,-0.025616019758996206,0.058108545346500465,0,70,255.0,255.0,255.0
368,18.400000000000002,4.38021331799296,5.3896993158085325,-25.445145994677006,0.12920769502102047,0.7814075705749456,-1.8106151569456843,-0.005234099045054709,-0.027055151826611973,0.060144662726552854,0,70,255.0,255.0,255.0
369,18.45,4.386666170495225,5.4287352757591325,-25.53560072331363,0.12888661256998937,0.7800188346819247,-1.8075570208748555,-0.00760919899618938,-0.028494283894227635,0.0621807801066051,0,70,255.0,255.0,255.0
370,18.5,4.3931,5.4677,-25.6259,0.1284467751214015,0.7785581421855229,-1.8043970789350239,-0.009984298947324888,-0.0299334159618434,0.06421689748665393,0,70,255.0,255.0,255.0
371,18.55,4.39951066090688,5.506590457408944,-25.716038842891397,0.1279957116436771,0.7770594955645959,-1.8011418380507873,-0.00805824016165217,-0.030012448875234733,0.06599273788281333,0,70,255.0,255.0,255.0
372,18.6,4.405901176213356,5.545405883695699,-25.806012703938087,0.1276409511052363,0.7755568972979994,-1.7977978051467425,-0.006132181375979451,-0.030091481788626064,0.06776857827897272,0,70,255.0,255.0,255.0
373,18.650000000000002,4.412276361066392,5.584146081277983,-25.89581714353908,0.12738249350607914,0.7740503473857332,-1.7943649802228898,-0.004206122590306734,-0.030170514702017395,0.06954441867513211,0,70,255.0,255.0,255.0
374,18.7,4.41864103061295,5.622810852573511,-25.985447722093372,0.1272203388462056,0.7725398458277978,-1.7908433632792293,-0.0022800638046341524,-0.030249547615408722,0.07132025907129137,0,70,255.0,255.0,255.0
375,18.75,4.425,5.6614,-26.0749,0.12715448712561572,0.7710253926241925,-1.787232954315761,-0.0003540050189614341,-0.03032858052880183,0.0730960994674561,0,70,255.0,255.0,255.0
376,18.8,4.431356661377011,5.6999132902654335,-26.164170085707692,0.1270995584948781,0.7695048451907811,-1.7835666363165092,-0.0018431402105431472,-0.030493316807649332,0.07355662050260747,0,70,255.0,255.0,255.0
377,18.85,4.437708714903494,5.738350347238848,-26.253256279864125,0.1269701731045614,0.7679760609434275,-1.7798772922655002,-0.0033322754021248603,-0.03065805308649683,0.07401714153775886,0,70,255.0,255.0,255.0
378,18.900000000000002,4.444052437741473,5.776710759079545,-26.342157431166715,0.12676633095466563,0.7664390398821315,-1.7761649221627334,-0.004821410593706573,-0.030822789365344334,0.07447766257291023,0,70,255.0,255.0,255.0
379,18.95,4.450384107052968,5.814994113946827,-26.430872388312864,0.12648803204519077,0.7648937820068931,-1.7724295260082092,-0.006310545785288181,-0.030987525644191823,0.07493818360806159,0,70,255.0,255.0,255.0
380,19.0,4.4567,5.8532,-26.5194,0.1261352763761368,0.7633402873177122,-1.7686711038019272,-0.007799680976870338,-0.031152261923040214,0.07539870464321474,0,70,255.0,255.0,255.0
381,19.05,4.462997093585077,5.891327581529328,-26.60773841427785,0.1257500543768103,0.7617531236722803,-1.7648476166831826,-0.007609198996189989,-0.03233428389423525,0.07754078010656652,0,70,255.0,255.0,255.0
382,19.1,4.4692751641726645,5.929374327348921,-26.695882976605436,0.1253743564765178,0.7601068589282886,-1.7609170257912705,-0.0074187170155096405,-0.03351630586543027,0.07968285556991829,0,70,255.0,255.0,255.0
383,19.150000000000002,4.475534687967713,5.967337282403848,-26.783828331794098,0.12500818267525932,0.7584014930857372,-1.7568793311261905,-0.007228235034829292,-0.034698327836625305,0.08182493103327007,0,70,255.0,255.0,255.0
384,19.200000000000003,4.4817761411751755,6.005213491639185,-26.87156912465517,0.12465153297303486,0.756637026144626,-1.7527345326879433,-0.007037753054148943,-0.03588034980782033,0.08396700649662184,0,70,255.0,255.0,255.0
385,19.25,4.488,6.043,-26.9591,0.12430440736984444,0.7548134581049553,-1.7484826304765286,-0.006847271073468164,-0.0370623717790135,0.08610908195997347,0,70,255.0,255.0,255.0
386,19.3,4.49420696428268,6.080693983617259,-27.046416257180915,0.12398022399789169,0.7529386601200951,-1.7441628969507461,-0.006120063804641951,-0.037929547615390656,0.08668025907132454,0,70,255.0,255.0,255.0
387,19.35,4.500398628405847,6.11829314336548,-27.13351581371415,0.12369240098938024,0.7510205033434161,-1.739814604569396,-0.005392856535815739,-0.038796723451767816,0.08725143618267561,0,70,255.0,255.0,255.0
388,19.400000000000002,4.506576810387676,6.155795311305072,-27.22039724165693,0.12344093834431011,0.7490589877749183,-1.7354377533324783,-0.004665649266989527,-0.03966389928814497,0.08782261329402667,0,70,255.0,255.0,255.0
389,19.450000000000003,4.512743328246335,6.193198319496443,-27.307059113066476,0.12322583606268127,0.7470541134146016,-1.7310323432399934,-0.003938441998163314,-0.04053107512452213,0.08839379040537775,0,70,255.0,255.0,255.0
390,19.5,4.5189,6.2305,-27.3935,0.12304709414449377,0.7450058802624662,-1.7265983742919409,-0.0032112347293371535,-0.04139825096089744,0.08896496751673943,0,70,255.0,255.0,255.0
391,19.55,4.525047849284207,6.267698884001638,-27.479718156998494,0.1228570496316276,0.7429562358473386,-1.7221167955138215,-0.004390545785310012,-0.04058752564420408,0.09029818360803185,0,70,255.0,255.0,255.0
392,19.6,4.53118472220395,6.3047962991891655,-27.565710568537977,0.12260803956596276,0.7409471276980457,-1.7175685559311376,-0.005569856841282872,-0.03977680032751072,0.09163139969932427,0,70,255.0,255.0,255.0
393,19.650000000000002,4.53730767048159,6.341794272375874,-27.651473901578203,0.1223000639474993,0.7389785558145875,-1.712953655543889,-0.006749167897255732,-0.03896607501081736,0.09296461579061668,0,70,255.0,255.0,255.0
394,19.700000000000003,4.543413745839487,6.378694830375056,-27.737004823078955,0.12193312277623719,0.7370505201969639,-1.7082720943520757,-0.00792847895322859,-0.03815534969412399,0.09429783188190911,0,70,255.0,255.0,255.0
395,19.75,4.5495,6.4155,-27.8223,0.12150721605217646,0.7351630208451753,-1.703523872355698,-0.009107790009201588,-0.03734462437743158,0.09563104797320321,0,70,255.0,255.0,255.0
396,19.8,4.555564038580496,6.452210480376191,-27.907355914825104,0.12105557747559323,0.7332363964905442,-1.698697920993953,-0.008957753054127335,-0.03972034980781188,0.09740700649658794,0,70,255.0,255.0,255.0
397,19.85,4.561605682778355,6.488821659877864,-27.99216831213396,0.12061144074676372,0.731190985864394,-1.6937831717060392,-0.008807716099053082,-0.042096075238192185,0.09918296501997266,0,70,255.0,255.0,255.0
398,19.900000000000002,4.567625307685968,6.5253275991914395,-28.07673275203027,0.1201748058656879,0.7290267889667249,-1.6887796244919557,-0.00865767914397883,-0.044471800668572495,0.10095892354335739,0,70,255.0,255.0,255.0
399,19.950000000000003,4.57362328839572,6.561722359003345,-28.161044794617723,0.11974567283236581,0.7267438057975367,-1.6836872793517033,-0.008507642188904577,-0.0468475260989528,0.10273488206674211,0,70,255.0,255.0,255.0
400,20.0,4.5796,6.598,-28.2451,0.11932404164679747,0.7243420363568297,-1.6785061362852818,-0.008357605233830556,-0.04922325152933471,0.10451084059012317,0,70,255.0,255.0,255.0
401,20.05,4.585555996393812,6.634155994493599,-28.328894183701106,0.11892064046599783,0.7219061781904833,-1.6732515205103935,-0.0077784419981544424,-0.04821107512452104,0.10567379040540816,0,70,255.0,255.0,255.0
402,20.1,4.59149254668263,6.670191461299386,-28.412424182926195,0.11854619744698201,0.7195209288443775,-1.6679387572447408,-0.007199278762478329,-0.047198898719707366,0.10683674022069314,0,70,255.0,255.0,255.0
403,20.150000000000002,4.59741109877454,6.706108930858375,-28.495687090300734,0.11820071258975,0.7171862883185124,-1.662567846488324,-0.006620115526802215,-0.046186722314893694,0.10799969003597815,0,70,255.0,255.0,255.0
404,20.200000000000003,4.603313100577634,6.741910933611577,-28.578679998450188,0.11788418589430177,0.7149022566128881,-1.6571387882411428,-0.006040952291126101,-0.04517454591008002,0.10916263985126314,0,70,255.0,255.0,255.0
405,20.25,4.6092,6.7776,-28.6614,0.1175966173606374,0.7126688337275044,-1.6516515825031979,-0.005461789055450472,-0.04416236950527086,0.1103255896665516,0,70,255.0,255.0,255.0
406,20.3,4.615072775844256,6.813177541649416,-28.743844150370492,0.11730986066041987,0.7104188907475195,-1.6461039969644837,-0.006008478953250281,-0.04583534969412393,0.11157783188200911,0,70,255.0,255.0,255.0
407,20.35,4.620930530491127,6.848640494924595,-28.826009356161272,0.11699576946531236,0.708085298758092,-1.6404937993149968,-0.006555168851050091,-0.047508329882977,0.11283007409746663,0,70,255.0,255.0,255.0
408,20.400000000000002,4.626771897215873,6.883984677375069,-28.907892486766812,0.11665434377531486,0.7056680577592217,-1.634820989554737,-0.0071018587488499,-0.04918131007183007,0.11408231631292415,0,70,255.0,255.0,255.0
409,20.450000000000003,4.632595509293744,6.919205906550361,-28.989490411581563,0.11628558359042736,0.7031671677509088,-1.6290855676837042,-0.007648548646649709,-0.05085429026068314,0.11533455852838166,0,70,255.0,255.0,255.0
410,20.5,4.6384,6.9543,-29.0708,0.11588948891064989,0.7005826287331535,-1.6232875337018988,-0.008195238544449368,-0.05252727044954231,0.11658680074384442,0,70,255.0,255.0,255.0
411,20.55,4.644184100229166,6.9892634389087425,-29.151818014816946,0.11547191689231603,0.697954258819441,-1.6174204916316368,-0.008507642188904478,-0.05260752609895807,0.11809488206663696,0,70,255.0,255.0,255.0
412,20.6,4.6499469313528605,7.024095359002238,-29.23254079242873,0.11503872469175942,0.6953218761232576,-1.611478045495235,-0.008820045833359588,-0.05268778174837383,0.11960296338942951,0,70,255.0,255.0,255.0
413,20.650000000000002,4.6556877123619715,7.058795559641361,-29.312964562632036,0.11458991230898007,0.6926854806446036,-1.6054601952926935,-0.009132449477814698,-0.0527680373977896,0.12111104471222205,0,70,255.0,255.0,255.0
414,20.700000000000003,4.661405662247389,7.09336384018699,-29.393085555223564,0.11412547974397795,0.6900450723834785,-1.5993669410240126,-0.00944485312226981,-0.052848293047205355,0.12261912603501458,0,70,255.0,255.0,255.0
415,20.75,4.6671,7.1278,-29.4729,0.11364542699675312,0.6874006513398829,-1.5931982826891922,-0.009757256766724787,-0.05292854869662733,0.12412720735781235,0,70,255.0,255.0,255.0
416,20.8,4.672770023239077,7.162103902715617,-29.552404590361725,0.11315447177030749,0.684756073974715,-1.586982036508966,-0.009880952291100356,-0.05285454591008225,0.12452263985122869,0,70,255.0,255.0,255.0
417,20.85,4.678415344097427,7.196275669066461,-29.63159787412382,0.11265733176764307,0.6821151967488747,-1.5807460187040692,-0.010004647815475923,-0.052780543123537166,0.12491807234464504,0,70,255.0,255.0,255.0
418,20.900000000000002,4.684035653336237,7.230315484059496,-29.710478862705056,0.11215400698875987,0.6794780196623613,-1.5744902292745013,-0.010128343339851492,-0.05270654033699209,0.1253135048380614,0,70,255.0,255.0,255.0
419,20.950000000000003,4.689630641716699,7.264223532701687,-29.789046567524196,0.11164449743365791,0.6768445427151754,-1.568214668220263,-0.01025203886422706,-0.05263253755044701,0.12570893733147773,0,70,255.0,255.0,255.0
420,21.0,4.6952,7.298,-29.8673,0.1111288031023372,0.6742147659073168,-1.5619193355413539,-0.010375734388602731,-0.052558534763900155,0.12610436982490114,0,70,255.0,255.0,255.0
421,21.05,4.700743806814524,7.3316441502287875,-29.945237223736164,0.11063019602645557,0.6715334452817023,-1.5555473623325191,-0.0095685486466624,-0.05469429026067519,0.1287745585284917,0,70,255.0,255.0,255.0
422,21.1,4.706263692257431,7.365151564731924,-30.022852511076,0.11017194823767096,0.6687453368812492,-1.5490418796885046,-0.00876136290472207,-0.05683004575745022,0.13144474723208227,0,70,255.0,255.0,255.0
423,21.150000000000002,4.711761674293076,7.398516904120666,-30.10013918654776,0.10975405973598336,0.6658504407059572,-1.5424028876093105,-0.007954177162781738,-0.058965801254225264,0.13411493593567284,0,70,255.0,255.0,255.0
424,21.200000000000003,4.717239770885814,7.431734829006273,-30.177090574679678,0.10937653052139276,0.6628487567558266,-1.535630386094937,-0.007146991420841407,-0.0611015567510003,0.1367851246392634,0,70,255.0,255.0,255.0
425,21.25,4.7227,7.4648,-30.2537,0.10903936059389924,0.6597402850308572,-1.5287243751453845,-0.006339805678901023,-0.06323731224777784,0.13945531334286088,0,70,255.0,255.0,255.0
426,21.3,4.728143549502828,7.497708296369234,-30.329961714693635,0.10869274412386985,0.6565981448984818,-1.5217405141609384,-0.007524853122274172,-0.062448293047238035,0.13989912603497887,0,70,255.0,255.0,255.0
427,21.35,4.733568286872851,7.53046047200585,-30.405873681572185,0.1082868752816718,0.6534954557261333,-1.5147344625418866,-0.008709900565647322,-0.061659273846698226,0.14034293872709683,0,70,255.0,255.0,255.0
428,21.400000000000002,4.738971249491459,7.563058499457849,-30.481434791103915,0.10782175406730511,0.650432217513812,-1.5077062202882285,-0.009894948009020473,-0.06087025464615842,0.14078675141921482,0,70,255.0,255.0,255.0
429,21.450000000000003,4.744349474740044,7.595504351273233,-30.5566439337571,0.10729738048076976,0.6474084302615174,-1.5006557873999646,-0.011079995452393621,-0.06008123544561861,0.1412305641113328,0,70,255.0,255.0,255.0
430,21.5,4.7497,7.6278,-30.6315,0.10671375452206579,0.64442409396925,-1.4935831638770956,-0.01226504289576702,-0.05929221624508152,0.1416743768034472,0,70,255.0,255.0,255.0
431,21.55,4.755020395174164,7.659946664294279,-30.706001517489298,0.10610282747806604,0.6414339751243623,-1.4864665810237234,-0.012172038864222776,-0.06031253755042842,0.14298893733143744,0,70,255.0,255.0,255.0
432,21.6,4.760310360251166,7.6919425472446825,-30.78014556263527,0.1054965506356435,0.6383928402142071,-1.4792842701439517,-0.012079034832678534,-0.061332858855775316,0.1443034978594277,0,70,255.0,255.0,255.0
433,21.650000000000002,4.765570127741087,7.723785098047946,-30.853928849036585,0.10489492399479816,0.6353006892387847,-1.4720362312377804,-0.01198603080113429,-0.062353180161122214,0.14561805838741795,0,70,255.0,255.0,255.0
434,21.700000000000003,4.770799930154006,7.755471765900807,-30.92734809029194,0.10429794755553004,0.6321575221980947,-1.4647224643052097,-0.011893026769590049,-0.06337350146646911,0.1469326189154082,0,70,255.0,255.0,255.0
435,21.75,4.776,7.787,-31.0004,0.10370562131783918,0.6289633390921379,-1.4573429693462399,-0.011800022738046256,-0.06439382277181771,0.14824717944340193,0,70,255.0,255.0,255.0
436,21.8,4.781170869800518,7.818367446453651,-31.073081015349175,0.10313594596386678,0.6257299546040676,-1.449881161744172,-0.010986991420849546,-0.06494155675099302,0.15022512463930512,0,70,255.0,255.0,255.0
437,21.85,4.786314272122484,7.8495725390154245,-31.145386467886755,0.1026069221757542,0.6224691834170385,-1.4423204568823091,-0.010173960103652834,-0.0654892907301683,0.15220306983520834,0,70,255.0,255.0,255.0
438,21.900000000000002,4.791432239544191,7.880613908350374,-31.217311412749748,0.10211854995350149,0.6191810255310507,-1.434660854760651,-0.009360928786456123,-0.06603702470934361,0.15418101503111153,0,70,255.0,255.0,255.0
439,21.950000000000003,4.796526804643933,7.911490185123548,-31.288850905075158,0.10167082929710858,0.6158654809461039,-1.4269023553791977,-0.008547897469259411,-0.0665847586885189,0.15615896022701475,0,70,255.0,255.0,255.0
440,22.0,4.8016,7.9422,-31.36,0.10126376020657554,0.6125225496621988,-1.41904495873795,-0.007734866152063091,-0.06713249266769328,0.1581369054229178,0,70,255.0,255.0,255.0
441,22.05,4.806652925623763,7.972741949891118,-31.430754421114,0.10084138866646443,0.6091502064593655,-1.4111287719995946,-0.00915999545238104,-0.06776123544563523,0.15851056411129036,0,70,255.0,255.0,255.0
442,22.1,4.811682951258896,8.003114496693621,-31.50111256581772,0.10034776066133742,0.6057464261176352,-1.4031939023268205,-0.01058512475269899,-0.06838997822357717,0.15888422279966294,0,70,255.0,255.0,255.0
443,22.150000000000002,4.816686514082146,8.033316068550565,-31.571073499964445,0.09978287619119453,0.6023112086370077,-1.395240349719628,-0.01201025405301694,-0.06901872100151912,0.1592578814880355,0,70,255.0,255.0,255.0
444,22.200000000000003,4.821660051270266,8.063345093605008,-31.640636289407446,0.09914673525603572,0.5988445540174832,-1.387268114178017,-0.013435383353334888,-0.06964746377946106,0.15963154017640807,0,70,255.0,255.0,255.0
445,22.25,4.8266,8.0932,-31.7098,0.09843933785586106,0.5953464622590617,-1.3792771957019876,-0.01486051265365318,-0.07027620655740119,0.16000519886477704,0,70,255.0,255.0,255.0
446,22.3,4.831503827704428,8.122879153981877,-31.77856290019483,0.09772249937027966,0.5918132195584658,-1.371219750257482,-0.013813026769602907,-0.07105350146643429,0.16229261891544058,0,70,255.0,255.0,255.0
447,22.35,4.836373122841932,8.15238067421009,-31.846920068842376,0.09705803517890076,0.5882411121124181,-1.3630479338104433,-0.012765540885552632,-0.07183079637546738,0.16458003896610413,0,70,255.0,255.0,255.0
448,22.400000000000002,4.841210504127222,8.181702617447364,-31.9148657873925,0.09644594528172437,0.584630139920919,-1.3547617463608714,-0.011718055001502359,-0.07260809128450049,0.1668674590167677,0,70,255.0,255.0,255.0
449,22.450000000000003,4.8460185902750075,8.210843040456425,-31.982394337295087,0.0958862296787505,0.5809803029839681,-1.3463611879087665,-0.010670569117452084,-0.07338538619353359,0.16915487906743124,0,70,255.0,255.0,255.0
450,22.5,4.8508,8.2398,-32.0495,0.09537888836997918,0.5772916013015658,-1.3378462584541289,-0.009623083233402552,-0.0741626811025684,0.1714422991180964,0,70,255.0,255.0,255.0
451,22.55,4.855556563558525,8.268571834181374,-32.11617797810668,0.09487661385241272,0.5735809153067877,-1.3292722269704982,-0.010467897469255373,-0.07426475868855338,0.17151896022711774,0,70,255.0,255.0,255.0
452,22.6,4.860286957373377,8.297158006466027,-32.18242715881279,0.09433209862305363,0.5698651254327103,-1.320694362431417,-0.011312711705108194,-0.07436683627453836,0.1715956213361391,0,70,255.0,255.0,255.0
453,22.650000000000002,4.864989069408968,8.32555826165999,-32.24824735046557,0.09374534268190189,0.5661442316793337,-1.3121126648368842,-0.012157525940961015,-0.07446891386052333,0.17167228244516047,0,70,255.0,255.0,255.0
454,22.700000000000003,4.869660787629704,8.353772344569304,-32.31363836141223,0.09311634602895752,0.5624182340466579,-1.3035271341869006,-0.013002340176813836,-0.0745709914465083,0.17174894355418183,0,70,255.0,255.0,255.0
455,22.75,4.8743,8.3818,-32.3786,0.09244510866422052,0.5586871325346832,-1.2949377704814662,-0.013847154412666485,-0.07467306903249238,0.17182560466321206,0,70,255.0,255.0,255.0
456,22.8,4.8789051180614695,8.409640709292633,-32.44313078737845,0.09176304522007091,0.5549351192143838,-1.28626734186048,-0.013435383353317681,-0.07540746377948084,0.17499154017623658,0,70,255.0,255.0,255.0
457,22.85,4.883476647664557,8.437292899925817,-32.50722409590645,0.09110157032888873,0.551146386156735,-1.2774386164638423,-0.013023612293968877,-0.07614185852646929,0.17815747568926107,0,70,255.0,255.0,255.0
458,22.900000000000002,4.888015618236908,8.464754735912685,-32.57087201074524,0.090460683990674,0.5473209333617367,-1.2684515942915535,-0.012611841234620074,-0.07687625327345773,0.1813234112022856,0,70,255.0,255.0,255.0
459,22.950000000000003,4.892523059206174,8.492024381266368,-32.634066617056014,0.08984038620542671,0.543458760829389,-1.2593062753436133,-0.01220007017527127,-0.07761064802044619,0.1844893467153101,0,70,255.0,255.0,255.0
460,23.0,4.897,8.5191,-32.6968,0.08924067697314692,0.5395598685596923,-1.2500026596200229,-0.011788299115922607,-0.07834504276743459,0.18765528222833439,0,70,255.0,255.0,255.0
461,23.05,4.901446964195595,8.5459797286481,-32.75906607237953,0.08863120526731179,0.5356226078356692,-1.240650405587628,-0.012590569117482187,-0.0791453861934869,0.1864348790674569,0,70,255.0,255.0,255.0
462,23.1,4.905862451968397,8.572661593830711,-32.820866057561396,0.08798162006139867,0.5316453299403434,-1.231359171713277,-0.013392839119041766,-0.07994572961953923,0.18521447590657938,0,70,255.0,255.0,255.0
463,23.150000000000002,4.910244457643401,8.599143594689279,-32.8822030065535,0.0872919213554076,0.5276280348737151,-1.2221289579969696,-0.014195109120601346,-0.08074607304559155,0.1839940727457019,0,70,255.0,255.0,255.0
464,23.200000000000003,4.914590975545603,8.62542373036523,-32.94307997036373,0.08656210914933851,0.5235707226357842,-1.2129597644387065,-0.014997379122160927,-0.08154641647164387,0.18277366958482438,0,70,255.0,255.0,255.0
465,23.25,4.9189,8.6515,-33.0035,0.08579218344319153,0.5194733932265508,-1.203851591038488,-0.01579964912372067,-0.08234675989770235,0.18155326642394165,0,70,255.0,255.0,255.0
466,23.3,4.9231702251561495,8.677370776114977,-33.06346412310342,0.08502413371067827,0.5153584494429451,-1.1946830357890301,-0.01492234017680939,-0.08225099144652556,0.18518894355435875,0,70,255.0,255.0,255.0
467,23.35,4.927403144461857,8.703035924751338,-33.12296527384796,0.08429994942551058,0.5112482940818982,-1.1853326966830517,-0.014045031229898105,-0.08215522299534879,0.18882462068477582,0,70,255.0,255.0,255.0
468,23.400000000000002,4.931600951189489,8.728495685330211,-33.18199436304079,0.08361963058768844,0.50714292714341,-1.1758005737205524,-0.013167722282986823,-0.082059454544172,0.19246029781519292,0,70,255.0,255.0,255.0
469,23.450000000000003,4.935765838611415,8.753750297272722,-33.240542301489086,0.08298317719721186,0.5030423486274809,-1.1660866669015324,-0.012290413336075539,-0.08196368609299522,0.19609597494561,0,70,255.0,255.0,255.0
470,23.5,4.9399,8.7788,-33.2986,0.08239058925408092,0.4989465585341107,-1.1561909762259919,-0.01141310438916443,-0.08186791764181978,0.19973165207603039,0,70,255.0,255.0,255.0
471,23.55,4.944004935179806,8.803644366891996,-33.35615983520677,0.08180025988997044,0.49481559439255346,-1.1462014512562124,-0.012200070175254296,-0.08337064802046587,0.19984934671514018,0,70,255.0,255.0,255.0
472,23.6,4.948079370184175,8.828280307163942,-33.41322004704676,0.08117058223655547,0.490609493732064,-1.1362060415544775,-0.012987035961344161,-0.08487337839911198,0.19996704135425,0,70,255.0,255.0,255.0
473,23.650000000000002,4.952121337598641,8.852704063989888,-33.469780341283354,0.08050155629383601,0.48632825655264217,-1.126204747120787,-0.013774001747434029,-0.08637610877775807,0.2000847359933598,0,70,255.0,255.0,255.0
474,23.700000000000003,4.956128870008737,8.87691188054389,-33.52584042367997,0.07979318206181206,0.48197188285428805,-1.1161975679551415,-0.014560967533523895,-0.08787883915640417,0.2002024306324696,0,70,255.0,255.0,255.0
475,23.75,4.9601,8.9009,-33.5814,0.07904545954048364,0.477540372637002,-1.1061845040575407,-0.01534793331961426,-0.08938156953505061,0.20032012527158294,0,70,255.0,255.0,255.0
476,23.8,4.964033234124623,8.92466535631704,-33.63645813606949,0.07828682672943925,0.47307517298683494,-1.0961271591861281,-0.014997379122161099,-0.08922641647162911,0.20197366958491367,0,70,255.0,255.0,255.0
477,23.85,4.967928974801441,8.948207646592904,-33.691011337965016,0.0775457216282675,0.46861773098983894,-1.085987137099049,-0.014646824924707936,-0.08907126340820763,0.2036272138982444,0,70,255.0,255.0,255.0
478,23.900000000000002,4.971788098415948,8.971527258710246,-33.74505547182581,0.07682214423696844,0.464168046646014,-1.0757644377963034,-0.014296270727254775,-0.08891611034478614,0.20528075821157515,0,70,255.0,255.0,255.0
479,23.950000000000003,4.975611481353636,8.994624580551724,-33.79858640379106,0.07611609455554201,0.4597261199553602,-1.0654590612778911,-0.013945716529801613,-0.08876095728136466,0.20693430252490588,0,70,255.0,255.0,255.0
480,24.0,4.9794,9.0175,-33.8516,0.0754275725839883,0.4552919509178778,-1.055071007543813,-0.013595162332348698,-0.08860580421794406,0.20858784683824183,0,70,255.0,255.0,255.0
481,24.05,4.9831541283217,9.04015340783984,-33.90409242051526,0.07473243319227738,0.45083571366010466,-1.044617911999219,-0.014210413336088133,-0.0896436860929784,0.20953597494551204,0,70,255.0,255.0,255.0
482,24.1,4.986872730610058,9.062582706464449,-33.95606100109316,0.07400653125037947,0.4463275823085798,-1.0341174100492616,-0.014825664339827566,-0.09068156796801276,0.21048410305278228,0,70,255.0,255.0,255.0
483,24.150000000000002,4.990554268737568,9.084785301169136,-34.00750337141344,0.07324986675829459,0.44176755686330327,-1.0235695016939406,-0.015440915343567,-0.0917194498430471,0.2114322311600525,0,70,255.0,255.0,255.0
484,24.200000000000003,4.994197204576718,9.106758597249216,-34.05841716115581,0.07246243971602274,0.437155637324275,-1.0129741869332558,-0.016056166347306434,-0.09275733171808144,0.2123803592673227,0,70,255.0,255.0,255.0
485,24.25,4.9978,9.1285,-34.1088,0.07164425012356399,0.43249182369149536,-1.0023314657672087,-0.016671417351045603,-0.09379521359311616,0.21332848737459287,0,70,255.0,255.0,255.0
486,24.3,5.00136145258858,9.1500074123236,-34.158648981869455,0.07081544050144985,0.42780597237275675,-0.9916091928170329,-0.016480967533519526,-0.09363883915642494,0.2155624306324342,0,70,255.0,255.0,255.0
487,24.35,5.004881702758326,9.171280727549307,-34.20795905766232,0.069996153370212,0.4231279397758527,-0.980775222703965,-0.016290517715993453,-0.09348246471973373,0.21779637389027548,0,70,255.0,255.0,255.0
488,24.400000000000002,5.008361226633783,9.192320336613216,-34.256724642520474,0.06918638872985049,0.4184577259007833,-0.9698295554280051,-0.016100067898467376,-0.09332609028304252,0.2200303171481168,0,70,255.0,255.0,255.0
489,24.450000000000003,5.011800500339492,9.213126630451416,-34.30494015158575,0.06838614658036525,0.4137953307475484,-0.9587721909891529,-0.015909618080941303,-0.09316971584635131,0.2222642604059581,0,70,255.0,255.0,255.0
490,24.5,5.0152,9.2337,-34.3526,0.06759542692175638,0.4091407543161483,-0.9476031293874096,-0.015719168263414796,-0.093013341409661,0.2244982036638028,0,70,255.0,255.0,255.0
491,24.55,5.018560061323981,9.254040142865765,-34.39969965200694,0.06680580480192608,0.4044523968488721,-0.9363853167326875,-0.015865716529797114,-0.09452095728138599,0.22421430252507477,0,70,255.0,255.0,255.0
492,24.6,5.021880458356637,9.274143983338329,-34.44623876825755,0.06600885526877664,0.3996886585880096,-0.9251816991349019,-0.016012264796179437,-0.09602857315311097,0.22393040138634673,0,70,255.0,255.0,255.0
493,24.650000000000002,5.025160824727303,9.294007752378008,-34.49221805850471,0.06520457832230811,0.39484953953356083,-0.9139922765940526,-0.016158813062561755,-0.09753618902483596,0.2236465002476187,0,70,255.0,255.0,255.0
494,24.700000000000003,5.0284007940653135,9.313627680945125,-34.53763823250124,0.06439297396252044,0.38993503968552584,-0.9028170491101397,-0.016305361328944078,-0.09904380489656095,0.22336259910889067,0,70,255.0,255.0,255.0
495,24.75,5.0316,9.333,-34.5825,0.06357404218941373,0.38494515904390497,-0.8916560166831639,-0.016451909595326608,-0.10055142076828494,0.22307869797016533,0,70,255.0,255.0,255.0
496,24.8,5.034758302115497,9.35212161621334,-34.626802810102824,0.06276134029084746,0.3799204402317462,-0.8804335402522255,-0.016056166347323535,-0.10043733171806286,0.2258203592673594,0,70,255.0,255.0,255.0
497,24.85,5.037876463815125,9.370992139097384,-34.67054106930748,0.06196842555468135,0.37490142587209857,-0.8690739807564276,-0.015660423099320465,-0.10032324266784078,0.2285620205645535,0,70,255.0,255.0,255.0
498,24.900000000000002,5.040955474457005,9.389611853874758,-34.713707923460724,0.0611952979809154,0.36988811596496196,-0.8575773381957699,-0.015264679851317391,-0.1002091536176187,0.23130368186174757,0,70,255.0,255.0,255.0
499,24.950000000000003,5.043996323399257,9.40798104576809,-34.75629651840931,0.06044195756954959,0.36488051051033654,-0.8459436125702524,-0.01486893660331432,-0.10009506456739663,0.23404534315894165,0,70,255.0,255.0,255.0
500,25.0,5.047,9.4261,-34.7983,0.059708404320583996,0.3598786095082225,-0.8341728038798761,-0.014473193355311498,-0.099980975517175,0.23678700445613998,0,70,255.0,255.0,255.0
501,25.05,5.049966730214032,9.443968592280877,-34.83971230758178,0.05894883403467809,0.3548578422241347,-0.8223125222583278,-0.015909618080924146,-0.10084971584633387,0.23762426040578788,0,70,255.0,255.0,255.0
502,25.1,5.0528936863828635,9.461585060272139,-34.88053055451254,0.05811744251249156,0.3497936379235889,-0.8104103778392969,-0.017346042806536795,-0.10171845617549276,0.2384615163554358,0,70,255.0,255.0,255.0
503,25.150000000000002,5.055777277444677,9.478947232122962,-34.92075264765242,0.05721422975402439,0.3446859966065852,-0.7984663706227838,-0.018782467532149443,-0.10258719650465163,0.2392987723050837,0,70,255.0,255.0,255.0
504,25.200000000000003,5.058613912337662,9.496052935982526,-34.960376493861524,0.056239195759276585,0.3395349182731236,-0.7864805006087884,-0.02021889225776209,-0.10345593683381052,0.24013602825473163,0,70,255.0,255.0,255.0
505,25.25,5.0614,9.5129,-34.9994,0.055192340528248236,0.3343404029232045,-0.7744527677973112,-0.021655316983374473,-0.10432467716296978,0.24097328420437947,0,70,255.0,255.0,255.0
506,25.3,5.064133177028372,9.52948641466315,-35.03782075957006,0.05414732357044048,0.3291121908717156,-0.7623643707144804,-0.02014536132893511,-0.10480380489658155,0.24256259910884667,0,70,255.0,255.0,255.0
507,25.35,5.0668159906534225,9.54581081981406,-35.07563511264237,0.053177804395354696,0.32386002243354617,-0.7501965078864261,-0.018635405674495745,-0.10528293263019332,0.24415191401331388,0,70,255.0,255.0,255.0
508,25.400000000000002,5.0694522157642865,9.561872017633396,-35.11283908592963,0.05228378300299088,0.31858389760869615,-0.7379491793131486,-0.01712545002005638,-0.10576206036380509,0.2457412289177811,0,70,255.0,255.0,255.0
509,25.450000000000003,5.0720456272501,9.57766881030182,-35.14942870614459,0.05146525939334903,0.3132838163971655,-0.7256223849946478,-0.015615494365617013,-0.10624118809741685,0.2473305438222483,0,70,255.0,255.0,255.0
510,25.5,5.0746,9.5932,-35.1854,0.050722233566429215,0.30795977879895464,-0.7132161249309243,-0.0141055387111777,-0.10672031583103081,0.2489198587267154,0,70,255.0,255.0,255.0
511,25.55,5.077118161672478,9.608464149066519,-35.22074945413796,0.049997871683566474,0.3025973942889943,-0.7007579948837768,-0.014868936603331539,-0.10777506456737972,0.24940534315918086,0,70,255.0,255.0,255.0
512,25.6,5.079599151003447,9.623458860471619,-35.255475394918015,0.04923533990609604,0.2971822723422165,-0.6882755906150059,-0.015632334495485376,-0.10882981330372864,0.24989082759164633,0,70,255.0,255.0,255.0
513,25.650000000000002,5.082041059498177,9.63818149734346,-35.289576608629105,0.04843463823401792,0.2917144129586213,-0.6757689121246118,-0.016395732387639216,-0.10988456204007754,0.2503763120241118,0,70,255.0,255.0,255.0
514,25.700000000000003,5.084441978661938,9.6526294228102,-35.323051881560126,0.04759576666733209,0.2861938161382086,-0.6632379594125943,-0.017159130279793055,-0.11093931077642646,0.25086179645657725,0,70,255.0,255.0,255.0
515,25.75,5.0868,9.6668,-35.3559,0.04671872520603865,0.2806204818809788,-0.6506827324789545,-0.017922528171947172,-0.11199405951277663,0.2513472808890471,0,70,255.0,255.0,255.0
516,25.8,5.089113376281718,9.680691389070773,-35.3881190238781,0.0458131896952958,0.2750422319723137,-0.6380596497503622,-0.018298892257766534,-0.1111359368338264,0.2535760282546333,0,70,255.0,255.0,255.0
517,25.85,5.091381005332792,9.694304938299465,-35.41970410768557,0.044888835980261964,0.269506888197596,-0.6253251296534909,-0.0186752563435859,-0.11027781415487616,0.2558047756202195,0,70,255.0,255.0,255.0
518,25.900000000000002,5.093601946243006,9.707642792992766,-35.45064967955398,0.043945664060937174,0.26401445055682593,-0.6124791721883399,-0.019051620429405263,-0.10941969147592592,0.2580335229858057,0,70,255.0,255.0,255.0
519,25.950000000000003,5.0957752581021465,9.72070709845738,-35.48095016761493,0.042983673937321415,0.2585649190500033,-0.5995217773549099,-0.019427984515224626,-0.10856156879697569,0.2602622703513919,0,70,255.0,255.0,255.0
520,26.0,5.0979,9.7335,-35.5106,0.042002865609414755,0.2531582936771285,-0.5864529451532013,-0.019804348601044075,-0.10770344611802773,0.2624910177169797,0,70,255.0,255.0,255.0
521,26.05,5.099975533200651,9.746022294650384,-35.539594450349625,0.04102136953524844,0.2477136778217425,-0.5733234061147248,-0.01945549436560807,-0.11008118809740942,0.2626905438220758,0,70,255.0,255.0,255.0
522,26.1,5.102002427665387,9.758269386330525,-35.56793217433972,0.04005731617285392,0.2421501748673874,-0.5601838907709934,-0.019106640130172062,-0.11245893007679111,0.26289006992717195,0,70,255.0,255.0,255.0
523,26.150000000000002,5.1039815555298,9.770235330685473,-35.595612673154974,0.039110705522231205,0.23646778481406322,-0.5470343991220071,-0.01875778589473605,-0.11483667205617279,0.26308959603226806,0,70,255.0,255.0,255.0
524,26.200000000000003,5.105913788929474,9.781914183360282,-35.62263544798017,0.03818153758338029,0.23066650766176997,-0.5338749311677663,-0.018408931659300045,-0.11721441403555448,0.2632891221373642,0,70,255.0,255.0,255.0
525,26.25,5.1078,9.7933,-35.649,0.03726981235630124,0.22474634341050806,-0.5207054869082713,-0.018060077423864174,-0.11959215601493622,0.263488648242463,0,70,255.0,255.0,255.0
526,26.3,5.109640490915679,9.804388232327689,-35.67470477472335,0.036341332163709904,0.21879105674072435,-0.5074627257907925,-0.019079130279788706,-0.11861931077640907,0.2662217964566809,0,70,255.0,255.0,255.0
527,26.35,5.111433284005658,9.815179916378439,-35.69974399495557,0.035361899328322344,0.21288441233286698,-0.49408330726260286,-0.020098183135713238,-0.11764646553788191,0.2689549446708988,0,70,255.0,255.0,255.0
528,26.400000000000002,5.113175831637798,9.825677484265343,-35.7241108278261,0.03433151385013855,0.207026410186936,-0.4805672313237023,-0.02111723599163777,-0.11667362029935475,0.27168809288511675,0,70,255.0,255.0,255.0
529,26.450000000000003,5.114865586179958,9.835883368101497,-35.74779844046443,0.03325017572915853,0.20121705030293133,-0.4669144979740908,-0.022136288847562306,-0.1157007750608276,0.2744212410993347,0,70,255.0,255.0,255.0
530,26.5,5.1165,9.8458,-35.7708,0.03211788496538237,0.1954563326808535,-0.4531251072137694,-0.023155341703486654,-0.11472792982230029,0.27715438931355596,0,70,255.0,255.0,255.0
531,26.55,5.118077703136635,9.855428776038858,-35.793109650756946,0.03100530180991426,0.18968209521537022,-0.4392576907221414,-0.021347984515237135,-0.11624156879702723,0.2775422703515577,0,70,255.0,255.0,255.0
532,26.6,5.119602036311982,9.864766948155726,-35.81472544583802,0.02998308651385863,0.1838321758011506,-0.42537088017861324,-0.01954062732698762,-0.11775520777175416,0.2779301513895595,0,70,255.0,255.0,255.0
533,26.650000000000002,5.121077517919011,9.873810732253162,-35.83564641554061,0.02905123907721547,0.17790657443819463,-0.411464675583185,-0.0177332701387381,-0.1192688467464811,0.27831803242756126,0,70,255.0,255.0,255.0
534,26.700000000000003,5.122508666350694,9.882556344233732,-35.85587159016214,0.02820975949998479,0.17190529112650232,-0.3975390769358567,-0.015925912950488584,-0.12078248572120805,0.278705913465563,0,70,255.0,255.0,255.0
535,26.75,5.1239,9.891,-35.8754,0.027458647782166643,0.16582832586607407,-0.38359408423662933,-0.014118555762239221,-0.12229612469593465,0.2790937945035674,0,70,255.0,255.0,255.0
536,26.8,5.125254296537781,9.899138263516877,-35.89423022224886,0.026693460596628464,0.1596965623977871,-0.36960251132060856,-0.016488931659287616,-0.12297441403554071,0.28056912213725715,0,70,255.0,255.0,255.0
537,26.85,5.126567370746415,9.906969090998663,-35.91235902169237,0.025809754616237857,0.15353088446251983,-0.3555371720229032,-0.01885930755633601,-0.12365270337514678,0.2820444497709469,0,70,255.0,255.0,255.0
538,26.900000000000002,5.127833296686158,9.914490786722011,-35.92978271001145,0.024807529840994835,0.14733129206027223,-0.34139806634351344,-0.021229683453384402,-0.12433099271475284,0.28351977740463663,0,70,255.0,255.0,255.0
539,26.950000000000003,5.129046148417267,9.921701654963572,-35.94649759888702,0.023686786270899388,0.14109778519104435,-0.32718519428243914,-0.023600059350432797,-0.1250092820543589,0.28499510503832637,0,70,255.0,255.0,255.0
540,27.0,5.1302,9.9286,-35.9625,0.022447523905951616,0.13483036385483665,-0.31289855583968135,-0.025970435247480994,-0.12568757139396491,0.2864704326720173,0,70,255.0,255.0,255.0
541,27.05,5.131290710712239,9.935184569893638,-35.977786260247626,0.021196855803575634,0.12855565519346732,-0.2985402639953998,-0.0240562888475577,-0.12530077506080523,0.28786124109923616,0,70,255.0,255.0,255.0
542,27.1,5.132321280702358,9.941455887849624,-35.99235286739252,0.02004189502119581,0.12230028634875595,-0.2841124317297573,-0.022142142447634405,-0.12491397872764555,0.289252049526455,0,70,255.0,255.0,255.0
543,27.150000000000002,5.133296495336358,9.947414920858792,-36.00619634441359,0.018982641558812158,0.11606425732070258,-0.2696150590427539,-0.02022799604771111,-0.12452718239448586,0.29064285795367384,0,70,255.0,255.0,255.0
544,27.200000000000003,5.134221139980239,9.953062635911973,-36.019313214289774,0.01801909541642467,0.1098475681093072,-0.2550481459343895,-0.01831384964778782,-0.12414038606132619,0.2920336663808927,0,70,255.0,255.0,255.0
545,27.25,5.1351,9.9584,-36.0317,0.01715125659403341,0.10365021871457022,-0.24041169240466523,-0.016399703247864716,-0.1237535897281663,0.2934244748081116,0,70,255.0,255.0,255.0
546,27.3,5.135936460613266,9.96342745690857,-36.04335353676061,0.01629511618907382,0.09744081682833601,-0.22572443269782064,-0.01784591295051836,-0.12462248572119897,0.2940659134656644,0,70,255.0,255.0,255.0
547,27.35,5.136728306444156,9.96814335760284,-36.054271908737576,0.015366665298981548,0.09118797014245016,-0.21100510105809836,-0.019292122653172004,-0.12549138171423163,0.29470735212321714,0,70,255.0,255.0,255.0
548,27.400000000000002,5.1374719219684115,9.972545529842822,-36.06445351233421,0.014365903923756593,0.08489167865691265,-0.19625369748549848,-0.020738332355825645,-0.12636027770726432,0.2953487907807699,0,70,255.0,255.0,255.0
549,27.450000000000003,5.138163691661779,9.976631801388535,-36.073896743953895,0.013292832063398954,0.07855194237172354,-0.18147022198002097,-0.02218454205847929,-0.127229173700297,0.29599022943832265,0,70,255.0,255.0,255.0
550,27.5,5.1388,9.9804,-36.0826,0.012147449717908715,0.07216876128688325,-0.16665467454166685,-0.023630751761132926,-0.1280980696933296,0.2966316680958754,0,70,255.0,255.0,255.0
551,27.55,5.139377846834698,9.983847202472075,-36.0905595927099,0.010966679440119984,0.06569707749319129,-0.15168200521331088,-0.0236000593504156,-0.13076928205434546,0.30227510503835503,0,70,255.0,255.0,255.0
552,27.6,5.139896693521021,9.986967481739018,-36.09776349765721,0.009787443782867122,0.05909183308144852,-0.1364271640378309,-0.023569366939698275,-0.13344049441536132,0.30791854198083474,0,70,255.0,255.0,255.0
553,27.650000000000002,5.140356616789994,9.989754159769921,-36.10419760624956,0.008609742746150124,0.05235302805165497,-0.12089015101522696,-0.02353867452898095,-0.13611170677637716,0.3135619789233144,0,70,255.0,255.0,255.0
554,27.700000000000003,5.140757693372644,9.992200558533883,-36.10984780989462,0.007433576329968993,0.04548066240381061,-0.10507096614549903,-0.02350798211826362,-0.13878291913739302,0.3192054158657941,0,70,255.0,255.0,255.0
555,27.75,5.1411,9.9943,-36.1147,0.006258944534323811,0.038474736137915966,-0.08896960942864827,-0.023477289707546332,-0.1414541314984087,0.32484885280827336,0,70,255.0,255.0,255.0
556,27.8,5.14138415204794,9.996050133203122,-36.11874969239977,0.005118166050441088,0.031594873198921354,-0.0731635464489198,-0.02215384964776192,-0.13374038606137184,0.30739366638085686,0,70,255.0,255.0,255.0
557,27.85,5.14161291947176,9.997465915441092,-36.122030900633575,0.0040435595695475866,0.02510069753177859,-0.05823024279056216,-0.020830409587977505,-0.126026640624335,0.2899384799534403,0,70,255.0,255.0,255.0
558,27.900000000000002,5.14178961087161,9.998566631077498,-36.124587262667504,0.003035125091643308,0.018992209136487675,-0.04416969845357535,-0.019506969528193092,-0.11831289518729815,0.2724832935260238,0,70,255.0,255.0,255.0
559,27.950000000000003,5.141917534847641,9.999371564475936,-36.12646241646763,0.0020928626167282505,0.013269408013048609,-0.03098191343795939,-0.018183529468408677,-0.1105991497502613,0.25502810709860724,0,70,255.0,255.0,255.0
560,28.0,5.142,9.9999,-36.1277,0.0012167721448024741,0.007932294161461757,-0.018666887743715114,-0.01686008940862437,-0.10288540431322496,0.2375729206711919,0,70,255.0,255.0,255.0
561,28.05,5.142041544973543,10.000178664715438,-36.12836083769102,0.0004806563581243154,0.003427429711123306,-0.008255808990978827,-0.012584542058501562,-0.07730917370031053,0.17887022943825368,0,70,255.0,255.0,255.0
562,28.1,5.142051628591937,10.000264056496624,-36.12857449980845,-4.168206104769996e-05,0.00020137679143059518,-0.0007798647998894914,-0.008308994708378757,-0.051732943087396094,0.12016753820531546,0,70,255.0,255.0,255.0
563,28.150000000000002,5.142040939723563,10.000220115920092,-36.12848774308037,-0.00035024311271357185,-0.0017458645976163771,0.0037609448295528886,-0.004033447358255952,-0.02615671247448166,0.061464846972377224,0,70,255.0,255.0,255.0
564,28.200000000000003,5.142020167236791,10.000110783562373,-36.12824732423486,-0.0004450267968733009,-0.0024142944560176065,0.00536661989734832,0.0002420999918668551,-0.000580481861567228,0.002762155739439026,0,70,255.0,255.0,255.0
565,28.25,5.142,10.0,-36.128,-0.00032603311352690217,-0.0018039127837731895,0.004037160403496998,0.004517647341989359,0.024995748751345394,-0.05594053549349501,0,70,255.0,255.0,255.0
566,28.3,5.141988868057894,9.99993840793513,-36.12786215683612,-0.00012879148293404395,-0.0007125920434233046,0.001594782412805003,0.0033720178817248578,0.018657080862649375,-0.041754584134183384,0,70,255.0,255.0,255.0
567,28.35,5.141986166160489,9.999923458572418,-36.12782870013258,1.1168674645588376e-05,6.17953024917748e-05,-0.00013829800992140053,0.0022263884214603563,0.01231841297395336,-0.027568632774871767,0,70,255.0,255.0,255.0
568,28.400000000000002,5.141989030234141,9.999939305242139,-36.12786416501098,9.384735921199488e-05,0.0005192492539720485,-0.0011620808646822123,0.001080758961195855,0.005979745085257341,-0.01338268141556015,0,70,255.0,255.0,255.0
569,28.450000000000003,5.141994596205194,9.999970101274574,-36.127933086592925,0.00011924457076517537,0.0006597698110175176,-0.0014765661514774342,-6.487049906864651e-05,-0.00035892280343867433,0.0008032699437514751,0,70,255.0,255.0,255.0
570,28.5,5.142,10.0,-36.128,8.736030930513443e-05,0.0004833569736282046,-0.0010817538703071189,-0.001210499959333066,-0.006697590692134242,0.014989221303062081,0,70,255.0,255.0,255.0
571,28.55,5.142002982794888,10.00001650354404,-36.12803693496447,3.450957361186035e-05,0.000190938462568118,-0.00042732066026308387,-0.0009035294683978673,-0.004999149750269055,0.01118810709869895,0,70,255.0,255.0,255.0
572,28.6,5.142003706766104,10.000020509213709,-36.1280458996612,-2.9926375346535697e-06,-1.6558001398707986e-05,3.705683956279184e-05,-0.0005965589774626685,-0.003300708808403867,0.007386992894335817,0,70,255.0,255.0,255.0
