idx,t,px,py,pz,vx,vy,vz,ax,ay,az,yaw,mode,ledr,ledg,ledb
0,0.0,-3.0,3.0,0.0,1.2607953494920168e-12,-1.48376025249473e-11,0.0807048396932587,-1.51295441939042e-11,1.7805123029936762e-10,-2.246058076319104,0,70,255.0,255.0,255.0
1,0.05,-2.9999999999999547,2.9999999999994658,0.0012485742289573135,5.799658607663277e-13,-6.8252971614757585e-12,-0.030343773741100984,-1.2103635355123362e-11,1.424409842394941e-10,-2.1958864610552835,0,70,255.0,255.0,255.0
2,0.1,-2.999999999999939,2.999999999999288,-0.0029925676947235827,5.043181397968067e-14,-5.935041009978926e-13,-0.13888380641226963,-9.07772651634252e-12,1.0683073817962057e-10,-2.1457148457914625,0,70,255.0,255.0,255.0
3,0.15000000000000002,-2.9999999999999467,2.999999999999377,-0.012597996732883136,-3.278067908679245e-13,3.857776656486299e-12,-0.2449152583202473,-6.051817677561679e-12,7.122049211974703e-11,-2.095543230527642,0,70,255.0,255.0,255.0
4,0.2,-2.9999999999999694,2.9999999999996443,-0.027442283847361797,-5.547499537764872e-13,6.5285451109768104e-12,-0.34843812946503383,-3.0259088387808396e-12,3.5610246059873524e-11,-2.045371615263821,0,70,255.0,255.0,255.0
5,0.25,-3.0,3.0,-0.0474,-6.303976747460084e-13,7.41880126247365e-12,-0.44945241984662937,0.0,0.0,-1.9952000000000019,0,70,255.0,255.0,255.0
6,0.30000000000000004,-3.00000000000003,3.000000000000356,-0.07234571615263824,-5.547499537764872e-13,6.528545110976811e-12,-0.547958129465034,3.025908838780843e-12,-3.5610246059873556e-11,-1.9450283847361798,0,70,255.0,255.0,255.0
7,0.35000000000000003,-3.000000000000053,3.0000000000006235,-0.10215400326711689,-3.2780679086792413e-13,3.857776656486296e-12,-0.6439552583202474,6.0518176775616825e-12,-7.122049211974707e-11,-1.8948567694723577,0,70,255.0,255.0,255.0
8,0.4,-3.0000000000000604,3.0000000000007123,-0.13669943230527645,5.043181397968087e-14,-5.935041009978946e-13,-0.7374438064122697,9.077726516342522e-12,-1.0683073817962058e-10,-1.8446851542085358,0,70,255.0,255.0,255.0
9,0.45,-3.0000000000000453,3.0000000000005342,-0.1758565742289573,5.79965860766328e-13,-6.825297161475761e-12,-0.8284237737411009,1.2103635355123362e-11,-1.424409842394941e-10,-1.7945135389447138,0,70,255.0,255.0,255.0
10,0.5,-3.0,3.0,-0.2195,1.2607953494920168e-12,-1.48376025249473e-11,-0.9168951603067411,1.51295441939042e-11,-1.7805123029936764e-10,-1.7443419236808841,0,70,255.0,255.0,255.0
11,0.55,-2.999999999999924,2.9999999999991096,-0.2674993096184045,1.6390339543396217e-12,-1.9288883282431495e-11,-1.0025597083987632,-1.2924697071141057e-26,1.2924697071141057e-25,-1.6822399999999957,0,70,255.0,255.0,255.0
12,0.6000000000000001,-2.999999999999849,2.999999999998219,-0.31970421923680903,1.2607953494920154e-12,-1.483760252494729e-11,-1.085119160306741,-1.5129544193904227e-11,1.780512302993679e-10,-1.6201380763191073,0,70,255.0,255.0,255.0
13,0.65,-2.999999999999811,2.9999999999977742,-0.3759594740460111,1.260795349492011e-13,-1.483760252494727e-12,-1.1645735160306738,-3.025908838780841e-11,3.561024605987353e-10,-1.558036152638219,0,70,255.0,255.0,255.0
14,0.7000000000000001,-2.9999999999998486,2.9999999999982196,-0.43610981923680897,-1.7651134892888269e-12,2.0772643534926254e-11,-1.2409227755705627,-4.538863258171263e-11,5.34153690898103e-10,-1.4959342289573305,0,70,255.0,255.0,255.0
15,0.75,-3.0,3.0,-0.5,-4.412783723222059e-12,5.193160883731556e-11,-1.314166938926407,-6.05181767756168e-11,7.122049211974706e-10,-1.4338323052764324,0,70,255.0,255.0,255.0
16,0.8,-3.0000000000002722,3.000000000003205,-0.5674762453737441,-6.001385863582e-12,7.062698801874917e-11,-1.3843950369399134,-3.0259088387807847e-12,3.561024605987303e-11,-1.3752916152638186,0,70,255.0,255.0,255.0
17,0.8500000000000001,-3.000000000000552,3.000000000006499,-0.6383907197856477,-4.715374607100138e-12,5.549263344330286e-11,-1.451696100452789,5.4466359098055236e-11,-6.409844290777245e-10,-1.3167509252512046,0,70,255.0,255.0,255.0
18,0.9,-3.0000000000006963,3.0000000000081903,-0.7125970715106791,-5.547499537764844e-13,6.528545110976783e-12,-1.5160701294650338,1.1195862703489113e-10,-1.3175791042153207e-09,-1.2582102352385909,0,70,255.0,255.0,255.0
19,0.9500000000000001,-3.0000000000005596,3.000000000006588,-0.7899489488238072,6.480488096388982e-12,-7.626527697822925e-11,-1.577517123976648,1.6945089497172715e-10,-1.9941737793529184e-09,-1.1996695452259771,0,70,255.0,255.0,255.0
20,1.0,-3.0,3.0,-0.8703,1.6390339543396218e-11,-1.9288883282431494e-10,-1.6360370839876315,2.2694316290856295e-10,-2.6707684544905148e-09,-1.1411288552133634,0,70,255.0,255.0,255.0
21,1.05,-2.9999999999989866,2.9999999999880704,-0.9535053088866198,2.2366509499988375e-11,-2.6321906879256517e-10,-1.6917161438415833,1.2103635355123139e-11,-1.4244098423949213e-10,-1.0860335389447158,0,70,255.0,255.0,255.0
22,1.1,-2.9999999999979425,2.999999999975785,-1.0394257016206012,1.760070307890853e-11,-2.071329312482642e-10,-1.7446404378821032,-2.0273589219831668e-10,2.3858864860115305e-09,-1.0309382226760682,0,70,255.0,255.0,255.0
23,1.1500000000000001,-2.999999999997405,2.999999999969464,-1.127923439911273,2.0929202801566917e-12,-2.4630420191411927e-11,-1.7948099661091903,-4.1757541975175647e-10,4.914213956262553e-09,-0.9758429064074206,0,70,255.0,255.0,255.0
24,1.2000000000000002,-2.999999999997912,2.999999999975429,-1.2188607854679634,-2.4156838896267145e-11,2.8428846437799145e-10,-1.8422247285228455,-6.324149473051963e-10,7.442541426513576e-09,-0.9207475901387729,0,70,255.0,255.0,255.0
25,1.25,-3.0,3.0,-1.3121,-6.114857445036281e-11,7.196237224599442e-10,-1.8868847251230676,-8.472544748586352e-10,9.970868896764589e-09,-0.8656522738701184,0,70,255.0,255.0,255.0
26,1.3,-3.0000000000037828,3.000000000044513,-1.4075081190797774,-8.346465213637152e-11,9.822492871515117e-10,-1.9290763876937538,-4.538863258171184e-11,5.34153690898096e-10,-0.8220142289573218,0,70,255.0,255.0,255.0
27,1.35,-3.000000000007678,3.000000000090361,-1.5049712737319483,-6.568743770853398e-11,7.730390915497538e-10,-1.9690861480187998,7.564772096952115e-10,-8.902561514968397e-09,-0.778376184044525,0,70,255.0,255.0,255.0
28,1.4000000000000001,-3.000000000009683,3.000000000113953,-1.6043803688442302,-7.816931166850289e-12,9.199313565467108e-11,-2.0069140060982065,1.5583430519721348e-09,-1.833927672083489e-08,-0.7347381391317284,0,70,255.0,255.0,255.0
29,1.4500000000000002,-3.000000000007792,3.0000000000916964,-1.7056263093043418,9.014686748867962e-11,-1.060888580533737e-09,-2.0425599619319725,2.360208894249058e-09,-2.7775991926701383e-08,-0.6911000942189316,0,70,255.0,255.0,255.0
30,1.5,-3.0,3.0,-1.8086,2.2820395825805501e-10,-2.685606057015462e-09,-2.0760240155200993,3.1620747365259784e-09,-3.721270713256784e-08,-0.6474620493061494,0,70,255.0,255.0,255.0
31,1.55,-2.9999999999858846,2.9999999998338787,-1.913185414794271,3.1149209904549765e-10,-3.6657780798134814e-09,-2.1068903053834025,1.6945089497172492e-10,-1.9941737793528873e-09,-0.5871895452259834,0,70,255.0,255.0,255.0
32,1.6,-2.9999999999713447,2.9999999996627706,-2.0192388034516067,2.4514904775522753e-10,-2.8850234349507515e-09,-2.134742970042698,-2.8231729465825285e-09,3.322435957386207e-08,-0.5269170411458176,0,70,255.0,255.0,255.0
33,1.6500000000000001,-2.999999999963863,2.9999999995747246,-2.1266094847118073,2.917480438724447e-11,-3.433421224272702e-10,-2.1595820094979845,-5.815796788136782e-09,6.844289292707702e-08,-0.4666445370656517,0,70,255.0,255.0,255.0
34,1.7000000000000002,-2.999999999970921,2.9999999996577857,-2.235146777314672,-3.364306310584513e-10,3.959265857756958e-09,-2.181407423749263,-8.808420629691036e-09,1.0366142628029198e-07,-0.40637203298548574,0,70,255.0,255.0,255.0
35,1.75,-3.0,3.0,-2.3447,-8.516672585818573e-10,1.0022800505601904e-08,-2.2002192127965325,-1.1801044471245276e-08,1.3887995963350673e-07,-0.3460995289053308,0,70,255.0,255.0,255.0
36,1.8,-3.000000000052681,3.0000000006199743,-2.455119821743139,-1.1625037440456192e-09,1.3680863032102411e-08,-2.2160983907726353,-6.324149473051856e-10,7.4425414265134335e-09,-0.28906759013877725,0,70,255.0,255.0,255.0
37,1.85,-3.000000000106943,3.000000001258555,-2.566262312461625,-9.14908753312376e-10,1.0767054648253249e-08,-2.2291259718104106,1.0536214576634905e-08,-1.2399487678047987e-07,-0.23203565137222373,0,70,255.0,255.0,255.0
38,1.9000000000000001,-3.000000000134865,3.0000000015871486,-2.6779848923085416,-1.0888228638212728e-10,1.2813753540544123e-09,-2.2393019559098577,2.1704844100574993e-08,-2.554322949874732e-07,-0.17500371260567021,0,70,255.0,255.0,255.0
39,1.9500000000000002,-3.0000000001085243,3.0000000012771615,-2.7901449814369723,1.2555756567451258e-09,-1.4776174850494091e-08,-2.246626343070977,3.287347362451509e-08,-3.8686971319446647e-07,-0.11797177383911667,0,70,255.0,255.0,255.0
40,2.0,-3.0,3.0,-2.9026,3.178465076069374e-09,-3.7405595965392154e-08,-2.2510991332937698,4.404210314845513e-08,-5.183071314014592e-07,-0.060939835072574056,0,70,255.0,255.0,255.0
41,2.0500000000000003,-2.999999999803392,2.999999997686224,-3.0152072982331743,4.338522877136979e-09,-5.105767404859618e-08,-2.2527161315260575,2.3602088942488363e-09,-2.7775991926698742e-08,-0.0037400942189361602,0,70,255.0,255.0,255.0
42,2.1,-2.9999999996008824,2.9999999953030083,-3.1278239467018945,3.4144859654942768e-09,-4.018319515806225e-08,-2.251473142715663,-3.932168535995709e-08,4.627551475480573e-07,0.053459646634701236,0,70,255.0,255.0,255.0
43,2.15,-2.999999999496678,2.999999994076681,-3.2403069460540284,4.063543411412845e-10,-4.782159293790602e-09,-2.2473701668625874,-8.100357961416302e-08,9.532862870228135e-07,0.11065938748833862,0,70,255.0,255.0,255.0
44,2.2,-2.999999999594982,2.9999999952335683,-3.3525132969374427,-4.685871995922051e-09,5.5145433544219374e-08,-2.2404072039668295,-1.2268547386836932e-07,1.4438174264975738e-06,0.16785912834197653,0,70,255.0,255.0,255.0
45,2.25,-3.0,3.0,-3.4643,-1.1862193045695638e-08,1.395995833559667e-07,-2.23058425402839,-1.6436736812257527e-07,1.9343485659723296e-06,0.22505886919562101,0,70,255.0,255.0,255.0
46,2.3000000000000003,-3.0000000007337526,3.0000000086351286,-3.5755237853241675,-1.61915877645023e-08,1.905498331622823e-07,-2.217885083123136,-8.808420629690219e-09,1.0366142628028172e-07,0.28290796701452653,0,70,255.0,255.0,255.0
47,2.35,-3.0000000014895263,3.000000017529411,-3.686040300730798,-1.2743035108664733e-08,1.4996572598399573e-07,-2.2022934573269373,1.467505268631934e-07,-1.7270257134117496e-06,0.3407570648334315,0,70,255.0,255.0,255.0
48,2.4000000000000004,-3.0000000018784236,3.0000000221061285,-3.7957049234753457,-1.516535078182875e-09,1.784726182110631e-08,-2.183809376639793,3.0230947435607847e-07,-3.5577128531037977e-06,0.398606162652337,0,70,255.0,255.0,255.0
49,2.45,-3.0000000015115473,3.0000000177885644,-3.904373030813262,1.7487912326943073e-08,-2.0580555932638355e-07,-2.1624328410617037,4.5786842184896206e-07,-5.388399992795829e-06,0.45645526047124196,0,70,255.0,255.0,255.0
50,2.5,-3.0,3.0,-4.0119,4.427030710671318e-08,-5.209927374584747e-07,-2.1381638505926683,6.134273693418457e-07,-7.219087132487861e-06,0.5143043582901576,0,70,255.0,255.0,255.0
51,2.5500000000000003,-2.999999997261598,2.9999999677732614,-4.118141560470158,6.042782818087221e-08,-7.111416586005329e-07,-2.1110235359813925,3.287347362451194e-08,-3.8686971319442984e-07,0.5713082261608657,0,70,255.0,255.0,255.0
52,2.6,-2.999999994441012,2.999999934579349,-4.222954850374913,4.755765446916463e-08,-5.596797087779208e-07,-2.0810330279765816,-5.476804220928167e-07,6.445347706098942e-06,0.6283120940315734,0,70,255.0,255.0,255.0
53,2.6500000000000004,-2.9999999929896273,2.9999999174988057,-4.326197360044591,5.6597859715902274e-09,-6.660688799063534e-08,-2.048192326578235,-1.1282343178101505e-06,1.3277565125392373e-05,0.6853159619022815,0,70,255.0,255.0,255.0
54,2.7,-2.999999994358828,2.9999999336121745,-4.427726579809512,-6.526577731185028e-08,7.680768037613146e-07,-2.0125014317863537,-1.7087882135274791e-06,2.0109782544685746e-05,0.7423198297729892,0,70,255.0,255.0,255.0
55,2.75,-3.0,3.0,-4.5274,-1.6521903538115708e-07,1.944371366477932e-06,-1.9739603436009368,-2.289342109244808e-06,2.6941999963979108e-05,0.7993236976436986,0,70,255.0,255.0,255.0
56,2.8000000000000003,-3.000000010219856,3.0000001202718254,-4.625074772795202,-2.2551972495898654e-07,2.6540168012398494e-06,-1.9325487729512945,-1.2268547386835768e-07,1.443817426497431e-06,0.8571391283419842,0,70,255.0,255.0,255.0
57,2.85,-3.0000000207464255,3.0000002441531946,-4.720606697769547,-1.7748758276799384e-07,2.088753109127687e-06,-1.8882464307667384,2.0439711615080734e-06,-2.4054365110984022e-05,0.9149545590402692,0,70,255.0,255.0,255.0
58,2.9000000000000004,-3.0000000261630673,3.000000307898651,-4.813851236346294,-2.1122608808178015e-08,2.4858029014143323e-07,-1.8410533170472674,4.210627796884524e-06,-4.9552547648465696e-05,0.9727699897385549,0,70,255.0,255.0,255.0
59,2.95,-3.0000000210531392,3.0000002477627383,-4.904663849948693,2.43575196920458e-07,-2.8665016557188753e-06,-1.7909694317928828,6.377284432260955e-06,-7.505073018594716e-05,1.0305854204368399,0,70,255.0,255.0,255.0
60,3.0,-3.0,3.0,-4.9929,6.166058344179152e-07,-7.256492728453253e-06,-1.7379947750035838,8.543941067637387e-06,-0.0001005489127234286,1.0884008511351215,0,70,255.0,255.0,255.0
61,3.0500000000000003,-2.999999961858979,2.999999551139436,-5.078415348349037,8.41651071655074e-07,-9.904925546358864e-06,-1.682141372213424,4.5786842184891844e-07,-5.388399992795325e-06,1.1457352604712518,0,70,255.0,255.0,255.0
62,3.1,-2.9999999225732865,2.9999990888078725,-5.161066358546895,6.623926766028108e-07,-7.79533272773283e-06,-1.6234212489564586,-7.628204223939479e-06,8.977211273783711e-05,1.2030696698073815,0,70,255.0,255.0,255.0
63,3.1500000000000004,-2.9999999023581054,2.9999988509065907,-5.240709694570237,7.883064926112194e-08,-9.277142725751037e-07,-1.561834405232686,-1.5714276869727946e-05,0.0001849326254684704,1.2604040791435118,0,70,255.0,255.0,255.0
64,3.2,-2.9999999214286155,2.9999990753368726,-5.317202020395718,-9.090350103699817e-07,1.0697929819114186e-05,-1.4973808410421072,-2.3800349515516344e-05,0.0002800931381991028,1.3177384884796415,0,70,255.0,255.0,255.0
65,3.25,-3.0,3.0,-5.3904,-2.3012043022905037e-06,2.708159954733508e-05,-1.430060556384722,-3.188642216130473e-05,0.0003752536509297352,1.3750728978157767,0,70,255.0,255.0,255.0
66,3.3000000000000003,-3.0000001423442284,3.0000016751704295,-5.4601598338086506,-3.141084561661309e-06,3.69656853841956e-05,-1.3598457381950029,-1.7087882135273093e-06,2.0109782544683763e-05,1.4335198297729657,0,70,255.0,255.0,255.0
67,3.35,-3.0000002889604276,3.0000034006153142,-5.526335868042869,-2.472083123643248e-06,2.9092577801803628e-05,-1.2867085734074255,2.8468845734249844e-05,-0.00033503408584036444,1.4919667617301542,0,70,255.0,255.0,255.0
68,3.4000000000000004,-3.000000364404513,3.000004288474986,-5.588781985372762,-2.941999882363095e-07,3.4622768001589673e-06,-1.2106490620219874,5.8646479682027274e-05,-0.000690177954225416,1.5504136936873434,0,70,255.0,255.0,255.0
69,3.45,-3.000000293232399,3.0000034508897713,-5.647352068468437,3.392564844559469e-06,-3.992521762073786e-05,-1.1316672040386908,8.882411362980442e-05,-0.0010453218226104642,1.608860625644532,0,70,255.0,255.0,255.0
70,3.5,-3.0,3.0,-5.7019,8.5882113747441e-06,-0.00010106990546088707,-1.0497629994575348,0.00011900174757758158,-0.001400465690995513,1.667307557601724,0,70,255.0,255.0,255.0
71,3.5500000000000003,-2.9999994687641065,2.999993748178847,-5.752282916416361,1.1722687174990166e-05,-0.0001379578159904236,-0.9651316750065698,6.377284432260348e-06,-7.505073018594026e-05,1.7179454204368572,0,70,255.0,255.0,255.0
72,3.6,-2.999998921585002,2.9999873087308684,-5.798370969281628,9.225939817970186e-06,-0.00010857497847948172,-0.877968457413849,-0.00010624717871305988,0.0012503642306236208,1.7685832832719897,0,70,255.0,255.0,255.0
73,3.6500000000000004,-2.999998640023844,2.999983995193466,-5.840037563938716,1.0979693036841176e-06,-1.2921392928060796e-05,-0.7882733466793707,-0.0002188716418583811,0.0025757791914331938,1.8192211461071228,0,70,255.0,255.0,255.0
74,3.7,-2.9999989056417906,2.999987121104043,-5.877156105730536,-1.2661224367867892e-05,0.00014900294066383726,-0.6960463428031366,-0.00033149610500370134,0.0039011941522427546,1.8698590089422553,0,70,255.0,255.0,255.0
75,3.75,-3.0,3.0,-5.9096,-3.20516411966859e-05,0.00037719802229621325,-0.6012874457851459,-0.000444120568149021,0.005226609113052316,1.9204968717773871,0,70,255.0,255.0,255.0
76,3.8000000000000003,-3.0000035825993456,3.000027332114183,-5.93733650052591,-0.00013974966413828977,0.0007548655785775815,-0.5096275617787195,-0.0038638003495151114,0.009880093138202335,1.7458984884796513,0,70,255.0,255.0,255.0
77,3.85,-3.000016824699565,3.0000793644612123,-5.96070825483062,-0.00041843167614819584,0.0013652073361164452,-0.42669759693718057,-0.0072834801308811715,0.01453357716335231,1.5713001051819173,0,70,255.0,255.0,255.0
78,3.9000000000000004,-3.0000482755001117,3.0001677307511487,-5.980151758872377,-0.0008680976772264091,0.002208223294912816,-0.3524975512605277,-0.01070315991224726,0.019187061188502327,1.3967017218841815,0,70,255.0,255.0,255.0
79,3.95,-3.0001064842004386,3.000304064694058,-5.996103508609421,-0.0014887476673729216,0.0032839134549666775,-0.2870274247487622,-0.014122839693613321,0.023840545213652302,1.2221033385864473,0,70,255.0,255.0,255.0
80,4.0,-3.0002,3.0005,-6.009,-0.002280381646587736,0.004592277816278038,-0.2302872174018834,-0.017542519474979368,0.02849402923880228,1.047504955288713,0,70,255.0,255.0,255.0
81,4.05,-3.0003366008385113,3.0007673233644203,-6.019251081480002,-0.003196724030621419,0.006142495501682732,-0.18067807787855247,-0.01911117588636807,0.03351467817738571,0.936860625644531,0,70,255.0,255.0,255.0
82,4.1000000000000005,-3.0005209796167387,3.001118433424284,-6.0271600113958925,-0.0041914992352245556,0.007943745634016631,-0.1366011548374299,-0.0206798322977568,0.038535327115969235,0.826216296000347,0,70,255.0,255.0,255.0
83,4.15,-3.00075705797571,3.0015658818019375,-6.033003400571782,-0.005264707260397108,0.00999602821327967,-0.09805644827851724,-0.022248488709145503,0.043555976054552664,0.7155719663561648,0,70,255.0,255.0,255.0
84,4.2,-3.0010487575564544,3.0021222201197277,-6.037057859831782,-0.006416348106139097,0.012299343239471882,-0.06504395820181369,-0.023817145120534206,0.0485766249931361,0.6049276367119829,0,70,255.0,255.0,255.0
85,4.25,-3.0014,3.0028,-6.0396,-0.00764642177245052,0.014853690712593263,-0.03756368460731918,-0.025385801531922887,0.05359727393171944,0.49428330706780105,0,70,255.0,255.0,255.0
86,4.3,-3.0018156140466092,3.0036105744281363,-6.040917573554083,-0.00900935421337392,0.017587152414692272,-0.016284126707067956,-0.029131496105013303,0.05574119415224126,0.356899008942251,0,70,255.0,255.0,255.0
87,4.3500000000000005,-3.002304056833481,3.0045605018416532,-6.041342899585811,-0.010559571382951868,0.02042781012781742,-0.0018737837130940078,-0.03287719067810379,0.05788511437276313,0.21951471081669854,0,70,255.0,255.0,255.0
88,4.4,-3.0028746925970484,3.005655142041102,-6.041219438840497,-0.012297073281184312,0.02337566385196861,0.005667344374602139,-0.036622885251194205,0.06002903459328495,0.08213041269114857,0,70,255.0,255.0,255.0
89,4.45,-3.0035368855737445,3.006899854827034,-6.040890652063456,-0.014221859908071278,0.026430713587145896,0.006339257556020814,-0.04036857982428462,0.06217295481380678,-0.05525388543440152,0,70,255.0,255.0,255.0
90,4.5,-3.0043,3.0083,-6.0407,-0.01633393126361276,0.029592959333349267,0.0001419558311620188,-0.044114274397374975,0.0643168750343287,-0.19263818355995138,0,70,255.0,255.0,255.0
91,4.55,-3.0051721429750513,3.0098615789230356,-6.0409722243036645,-0.018557859115887157,0.032900894839548764,-0.011801415293175526,-0.04484283969360137,0.06800054521365174,-0.28509666141355217,0,70,255.0,255.0,255.0
92,4.6000000000000005,-3.0061563930493356,3.0115931592091045,-6.041957190260862,-0.02081821523297292,0.03639301385471448,-0.02836771031019343,-0.045571404989827785,0.07168421539297484,-0.37755513926715456,0,70,255.0,255.0,255.0
93,4.65,-3.0072545716360954,3.0135039500336562,-6.0438860440662285,-0.023114999614869965,0.04006931637884628,-0.0495569292198911,-0.04629997028605419,0.07536788557229789,-0.4700136171207553,0,70,255.0,255.0,255.0
94,4.7,-3.0084685001485694,3.0156031605721383,-6.046989931914396,-0.025448212261578326,0.043929802411944247,-0.07536907202226878,-0.04702853558228059,0.07905155575162091,-0.562472094974356,0,70,255.0,255.0,255.0
95,4.75,-3.0098,3.0179,-6.0515,-0.027817853173098008,0.04797447195400835,-0.1058041387173265,-0.04775710087850696,0.08273522593094396,-0.6549305728279562,0,70,255.0,255.0,255.0
96,4.800000000000001,-3.0112494140531867,3.0204007098797234,-6.0575615292312595,-0.030135209323074116,0.05202526822711053,-0.13571021212022633,-0.04493714512053607,0.07929662499314111,-0.5413123632880208,0,70,255.0,255.0,255.0
97,4.8500000000000005,-3.012811170969176,3.0230996613219294,-6.064976339370739,-0.032311567685151636,0.055904134453322506,-0.15993537504612898,-0.04211718936256523,0.07585802405533833,-0.4276941537480874,0,70,255.0,255.0,255.0
98,4.9,-3.0144782208585705,3.0259882578242743,-6.073460384894589,-0.034346928259330625,0.05961107063264434,-0.17847962749503493,-0.03929723360459439,0.07241942311753555,-0.314075944208154,0,70,255.0,255.0,255.0
99,4.95,-3.0162435138319768,3.0290579028844125,-6.082729620278959,-0.036241291045611065,0.06314607676507604,-0.19134296946694426,-0.03647727784662355,0.06898082217973277,-0.2004577346682206,0,70,255.0,255.0,255.0
100,5.0,-3.0181,3.0323,-6.0925,-0.037994656043992964,0.06650915285061759,-0.19852540096185692,-0.0336573220886528,0.06554222124192988,-0.08683952512828763,0,70,255.0,255.0,255.0
101,5.050000000000001,-3.0200422008122003,3.0357075815580714,-6.102545658771298,-0.039701303591816756,0.06979803225201103,-0.20351773622592428,-0.034608579824298075,0.06601295481380634,-0.11285388543440378,0,70,255.0,255.0,255.0
102,5.1000000000000005,-3.0220709230739615,3.039280195503178,-6.112873452256181,-0.041455514026422786,0.07311044833199826,-0.20981078950529733,-0.03555983755994333,0.0664836883856828,-0.13886824574051945,0,70,255.0,255.0,255.0
103,5.15,-3.0241885449296224,3.043019018669248,-6.1235484163554155,-0.04325728734781108,0.0764464010905793,-0.21740456079997617,-0.03651109529558859,0.06695442195755925,-0.16488260604663513,0,70,255.0,255.0,255.0
104,5.2,-3.026397444523522,3.0469252278902124,-6.134635586969767,-0.045106623555981634,0.07980589052775416,-0.2262990501099608,-0.037462353031233846,0.06742515552943572,-0.1908969663527508,0,70,255.0,255.0,255.0
105,5.25,-3.0287,3.051,-6.1462,-0.04700352265093445,0.08318891664352286,-0.23649425743525118,-0.03841361076687888,0.06789588910131206,-0.21691132665886692,0,70,255.0,255.0,255.0
106,5.300000000000001,-3.031097782698012,3.0552441638879904,-6.1582926356835515,-0.048899576309662955,0.08657460276484605,-0.24714684297608158,-0.03742853558226021,0.06753155575161356,-0.20919209497434316,0,70,255.0,255.0,255.0
107,5.3500000000000005,-3.0335891367349794,3.05965715666536,-6.170908251604539,-0.05074637620916049,0.08994207221868426,-0.25741346693268563,-0.036443460397641556,0.06716722240191506,-0.20147286328981956,0,70,255.0,255.0,255.0
108,5.4,-3.036171599422941,3.064238067498734,-6.18402754968375,-0.0525439223494271,0.09329132500503753,-0.26729412930506347,-0.03545838521302291,0.06680288905221655,-0.19375363160529593,0,70,255.0,255.0,255.0
109,5.45,-3.038842708073935,3.0689859855547392,-6.197631231841974,-0.054292214730462765,0.09662236112390589,-0.27678883009321514,-0.03447331002840426,0.06643855570251807,-0.18603439992077234,0,70,255.0,255.0,255.0
110,5.5,-3.0416,3.0739,-6.2117,-0.05599125335226751,0.0999351805752893,-0.2858975692971406,-0.0334882348437856,0.06607422235281901,-0.1783151682362476,0,70,255.0,255.0,255.0
111,5.550000000000001,-3.044441868395752,3.0789789628899666,-6.226218198494499,-0.05769239116952809,0.10321555668860335,-0.29483889186975243,-0.03455727784663664,0.06514082217974154,-0.17933773466821884,0,70,255.0,255.0,255.0
112,5.6000000000000005,-3.0473701299861213,3.084220777835383,-6.241184741325669,-0.05944698113693119,0.10644926279326349,-0.30383134276396256,-0.03562632084948766,0.06420742200666409,-0.18036030110019008,0,70,255.0,255.0,255.0
113,5.65,-3.0503874573786147,3.0896231113358157,-6.256602184909589,-0.06125502325447684,0.10963629888926975,-0.3128749219797713,-0.03669536385233868,0.06327402183358663,-0.1813828675321613,0,70,255.0,255.0,255.0
114,5.7,-3.0534965231807387,3.095183629890833,-6.272473085662339,-0.06311651752216506,0.11277666497662213,-0.32196962951717867,-0.0377644068551897,0.062340621660509174,-0.18240543396413253,0,70,255.0,255.0,255.0
115,5.75,-3.0567,3.1009,-6.2888,-0.0650314639399958,0.11587036105532064,-0.3311154653761846,-0.0388334498580406,0.06140722148743172,-0.18342800039610152,0,70,255.0,255.0,255.0
116,5.800000000000001,-3.059999543718978,3.106770384552143,-6.305584170338453,-0.06693885901222768,0.11894717048074228,-0.3402335895449061,-0.037462353031233686,0.06166515552943222,-0.18129696635275525,0,70,255.0,255.0,255.0
117,5.8500000000000005,-3.063392743320534,3.1127949319931094,-6.3228215830927885,-0.06877769924311919,0.12203687660826389,-0.3492451620114602,-0.0360912562044268,0.061923089571432714,-0.179165932309409,0,70,255.0,255.0,255.0
118,5.9,-3.066876171062601,3.1189742871580046,-6.340506910677897,-0.07054798463267035,0.12513947943788553,-0.358150182775847,-0.03472015937761991,0.06218102361343321,-0.17703489826606275,0,70,255.0,255.0,255.0
119,5.95,-3.070446399203112,3.1253090948819335,-6.35863482550867,-0.07224971518088118,0.1282549789696072,-0.3669486518380664,-0.03334906255081302,0.062438957655433704,-0.17490386422271653,0,70,255.0,255.0,255.0
120,6.0,-3.0741,3.1318,-6.3772,-0.07388289088775164,0.13138337520342888,-0.3756405691981185,-0.031977965724005686,0.06269689169743464,-0.17277283017936984,0,70,255.0,255.0,255.0
121,6.050000000000001,-3.077834356728336,3.138447498901462,-6.39619792015169,-0.0754961727815616,0.13451576138842755,-0.3842747499506221,-0.032553310028391534,0.06259855570250984,-0.17259439992076953,0,70,255.0,255.0,255.0
122,6.1000000000000005,-3.0816500967317433,3.1452514941921805,-6.41562732630318,-0.07713822189059082,0.1376432307736799,-0.3929000091901955,-0.03312865433277737,0.06250021970758506,-0.1724159696621692,0,70,255.0,255.0,255.0
123,6.15,-3.0855486583709824,3.152211740032168,-6.435487772378827,-0.07880903821483932,0.14076578335918602,-0.40151634691683896,-0.0337039986371632,0.06240188371266027,-0.1722375394035689,0,70,255.0,255.0,255.0
124,6.2,-3.089531480006814,3.1593279905814367,-6.455778812302982,-0.08050862175430713,0.1438834191449459,-0.4101237631305524,-0.034279342941549044,0.062303547717735476,-0.17205910914496858,0,70,255.0,255.0,255.0
125,6.25,-3.0936,3.1666,-6.4765,-0.08223697250899421,0.14699613813095955,-0.41872225783133576,-0.03485468724593488,0.06220521172281068,-0.17188067888636827,0,70,255.0,255.0,255.0
126,6.300000000000001,-3.097755029367678,3.1740268198420094,-6.49765054905479,-0.08395644986152279,0.15006178396554293,-0.4272914106525986,-0.0339244068552072,0.06042062166052206,-0.17088543396414177,0,70,255.0,255.0,255.0
127,6.3500000000000005,-3.101994869752493,3.181604691238169,-6.519228311694492,-0.08562941319451495,0.1530382002970118,-0.43581080122775,-0.03299412646447954,0.058636031598233475,-0.16989018904191527,0,70,255.0,255.0,255.0
128,6.4,-3.1063171954534705,3.1893291527133245,-6.5412307998067964,-0.08725586250797074,0.15592538712536622,-0.44428042955679015,-0.03206384607375187,0.05685144153594489,-0.16889494411968878,0,70,255.0,255.0,255.0
129,6.45,-3.1107196807696313,3.1971957427923203,-6.563655525279401,-0.08883579780189012,0.15872334445060626,-0.4527002956397188,-0.03113356568302421,0.0550668514736563,-0.1678996991974623,0,70,255.0,255.0,255.0
130,6.5,-3.1152,3.2052,-6.5865,-0.09036921907627314,0.16143207227273182,-0.4610703994765362,-0.030203285292296322,0.05328226141136749,-0.16690445427523626,0,70,255.0,255.0,255.0
131,6.550000000000001,-3.1197567258009538,3.2133388217305026,-6.60976148362915,-0.09191002777235058,0.1641331027494019,-0.46937560743898527,-0.0314290625508002,0.054758957655434794,-0.16530386422272184,0,70,255.0,255.0,255.0
132,6.6000000000000005,-3.1243920242582837,3.2216145408551435,-6.633436226918856,-0.09351212533135318,0.16690796803827535,-0.4776007858988085,-0.03265483980930405,0.05623565389950206,-0.16370327417020744,0,70,255.0,255.0,255.0
133,6.65,-3.1291089598151376,3.2300308491145335,-6.657520228393986,-0.09517551175328097,0.16975666813935208,-0.485745934856006,-0.0338806170678079,0.05771235014356933,-0.16210268411769302,0,70,255.0,255.0,255.0
134,6.7,-3.133910596914661,3.238591438249282,-6.682009486579411,-0.09690018703813395,0.17267920305263226,-0.49381105431057776,-0.035106394326311754,0.059189046387636605,-0.16050209406517862,0,70,255.0,255.0,255.0
135,6.75,-3.1388,3.2473,-6.7069,-0.09868615118591215,0.17567557277811574,-0.5017961442625237,-0.03633217158481572,0.06066574263170388,-0.15890150401266379,0,70,255.0,255.0,255.0
136,6.800000000000001,-3.1437788674285088,3.2561586932359816,-6.732188316428615,-0.10045143904907128,0.17865380503685158,-0.5097341595914641,-0.03427934294154903,0.05846354771772738,-0.15861910914494873,0,70,255.0,255.0,255.0
137,6.8500000000000005,-3.148843433214371,3.265163545341257,-6.7578731806300905,-0.10211408548006708,0.18152192754988852,-0.5176580551770187,-0.03222651429828238,0.05626135280375093,-0.1583367142772337,0,70,255.0,255.0,255.0
138,6.9,-3.1539885652859794,3.274309050828542,-6.783953886617259,-0.10367409047889953,0.18427994031722664,-0.5255678310191875,-0.030173685655015735,0.05405915788977447,-0.15805431940951867,0,70,255.0,255.0,255.0
139,6.95,-3.1592091315717243,3.2835897042105513,-6.810429728402952,-0.10513145404556863,0.18692784333886595,-0.5334634871179705,-0.02812085701174908,0.05185696297579802,-0.1577719245418036,0,70,255.0,255.0,255.0
140,7.0,-3.1645,3.293,-6.8373,-0.10648617618007443,0.18946563661480642,-0.5413450234733678,-0.026068028368482543,0.049654768061820675,-0.15748952967408858,0,70,255.0,255.0,255.0
141,7.050000000000001,-3.1698574044850116,3.302536005325573,-6.864563650656397,-0.10782021603136256,0.1919876771031934,-0.5491917541951569,-0.02729356568304157,0.051226851473656174,-0.15637969919747208,0,70,255.0,255.0,255.0
142,7.1000000000000005,-3.1752830428842316,3.3122000777798295,-6.892218250560786,-0.1092155327483786,0.19458832176217206,-0.5569829933931151,-0.02851910299760058,0.05279893488549165,-0.1552698687208556,0,70,255.0,255.0,255.0
143,7.15,-3.1807799790409454,3.3219961475713,-6.920261025136977,-0.1106721263311226,0.19726757059174252,-0.5647187410672425,-0.029744640312159586,0.05437101829732712,-0.15416003824423913,0,70,255.0,255.0,255.0
144,7.2,-3.1863512767984394,3.3319281449085136,-6.948689199808779,-0.11218999677959454,0.20002542359190476,-0.5723989972175388,-0.03097017762671859,0.0559431017091626,-0.15305020776762265,0,70,255.0,255.0,255.0
145,7.25,-3.192,3.342,-6.9775,-0.11376914409379445,0.20286188076265876,-0.5800237618440047,-0.032195714941277376,0.05751518512099851,-0.15194037729100707,0,70,255.0,255.0,255.0
146,7.300000000000001,-3.1977283146314437,3.352214085461729,-7.006690680945804,-0.11535569682548377,0.2056834865503747,-0.5875948236279096,-0.031266394326295105,0.05534904638763735,-0.15090209406518332,0,70,255.0,255.0,255.0
147,7.3500000000000005,-3.2035347952487028,3.362566543539427,-7.03625861712677,-0.11689578352642398,0.20839678540142254,-0.5951139712505231,-0.03033707371131286,0.053182907654276225,-0.1498638108393596,0,70,255.0,255.0,255.0
148,7.4,-3.2094171185502405,3.37305195888626,-7.066201212834835,-0.11838940419661505,0.21100177731580233,-0.6025812047118455,-0.029407753096330605,0.0510167689209151,-0.14882552761353587,0,70,255.0,255.0,255.0
149,7.45,-3.2153729612345185,3.3836649161553956,-7.096515872361933,-0.11983655883605702,0.21349846229351402,-0.6099965240118767,-0.028478432481348355,0.04885063018755397,-0.14778724438771212,0,70,255.0,255.0,255.0
150,7.5,-3.2214,3.3944,-7.1272,-0.12123724744474988,0.21588684033455768,-0.6173599291506167,-0.02754911186636566,0.04668449145419329,-0.1467489611618884,0,70,255.0,255.0,255.0
151,7.550000000000001,-3.2274965369892143,3.4052532528275132,-7.1582512255603925,-0.12262899666670277,0.2182543766953075,-0.6246849512932089,-0.028120857011749077,0.0480169629757982,-0.14625192454179617,0,70,255.0,255.0,255.0
152,7.6000000000000005,-3.233663376120958,3.416226548062466,-7.189668080932138,-0.1240493331459248,0.22068853663213753,-0.6319851216047964,-0.02869260215713248,0.04934943449740309,-0.14575488792170396,0,70,255.0,255.0,255.0
153,7.65,-3.2399019467580947,3.4273232168836616,-7.221449323523688,-0.125498256882416,0.2231893201450478,-0.6392604400853792,-0.029264347302515883,0.05068190601900798,-0.14525785130161176,0,70,255.0,255.0,255.0
154,7.7,-3.2462136782634876,3.438546590469905,-7.253593710743492,-0.1269757678761764,0.2257567272340383,-0.6465109067349575,-0.02983609244789929,0.052014377540612874,-0.14476081468151952,0,70,255.0,255.0,255.0
155,7.75,-3.2526,3.4499,-7.2861,-0.1284818661272059,0.2283907578991091,-0.6537365215535312,-0.03040783759328214,0.05334684906221754,-0.14426377806142643,0,70,255.0,255.0,255.0
156,7.800000000000001,-3.2590615374116996,3.46138570322822,-7.318966816812631,-0.12996831650770607,0.23102700666839365,-0.6609293711992573,-0.029050177626722885,0.05210310170916286,-0.14345020776761092,0,70,255.0,255.0,255.0
157,7.8500000000000005,-3.2655957002674656,3.4730016642107118,-7.352192259144682,-0.1313868838898782,0.2336010680700254,-0.6680815423302925,-0.02769251766016366,0.05085935435610821,-0.1426366374737954,0,70,255.0,255.0,255.0
158,7.9,-3.2721990944173815,3.4847447735790946,-7.3857742930704156,-0.1327375682737224,0.23611294210400444,-0.6751930349466367,-0.02633485769360443,0.049615607003053556,-0.14182306717997992,0,70,255.0,255.0,255.0
159,7.95,-3.2788683257115316,3.4966119219649845,-7.419710884664101,-0.13402036965923866,0.23856262877033074,-0.6822638490482903,-0.0249771977270452,0.0483718596499989,-0.14100949688616443,0,70,255.0,255.0,255.0
160,8.0,-3.2856,3.5086,-7.454,-0.13523528804642695,0.2409501280690043,-0.689293984635253,-0.023619537760486642,0.047128112296941804,-0.14019592659234448,0,70,255.0,255.0,255.0
161,8.05,-3.292391713363989,3.520706334259609,-7.488639107189085,-0.13644173730247264,0.2433015966311168,-0.696253563909755,-0.024638432481340337,0.04693063018755783,-0.13818724438773342,0,70,255.0,255.0,255.0
162,8.1,-3.299245022809181,3.5329299950946873,-7.523623682489138,-0.137699131294561,0.24564319108776006,-0.7031127090740263,-0.025657327202193995,0.04673314807817386,-0.1361785621831224,0,70,255.0,255.0,255.0
163,8.15,-3.306162475572379,3.5452704887999604,-7.55894870419465,-0.13900747002269204,0.2479749114389342,-0.7098714201280674,-0.02667622192304769,0.046535665968789885,-0.13416987997851137,0,70,255.0,255.0,255.0
164,8.200000000000001,-3.313146618890385,3.5577273216701566,-7.5946091506001085,-0.1403667534868658,0.2502967576846391,-0.7165296970718776,-0.027695116643901386,0.046338183859405906,-0.13216119777390029,0,70,255.0,255.0,255.0
165,8.25,-3.3202,3.5703,-7.6306,-0.14177698168708217,0.25260872982487476,-0.7230875399054572,-0.028714011364755487,0.046140701750022384,-0.13015251556928664,0,70,255.0,255.0,255.0
166,8.3,-3.327324409132345,3.582988159733344,-7.6669175544310315,-0.14319273428239887,0.25491860680714057,-0.7296243731617273,-0.027916092447912034,0.04625437754060995,-0.1313208146815173,0,70,255.0,255.0,255.0
167,8.35,-3.3345186084958094,3.5957919554105398,-7.703563410898766,-0.14456859093187338,0.2572341675789357,-0.7362196213736089,-0.027118173531068608,0.04636805333119751,-0.13248911379374792,0,70,255.0,255.0,255.0
168,8.4,-3.3417806032931012,3.608711671221063,-7.740540490150986,-0.14590455163550572,0.25955541214026034,-0.7428732845411021,-0.02632025461422515,0.046481729121785074,-0.13365741290597857,0,70,255.0,255.0,255.0
169,8.450000000000001,-3.349108398726929,3.6217475913543913,-7.777851712935471,-0.1472006163932959,0.2618823404911143,-0.7495853626642068,-0.025522335697381698,0.04659540491237264,-0.13482571201820923,0,70,255.0,255.0,255.0
170,8.5,-3.3565,3.6349,-7.8155,-0.1484567852052439,0.2642149526314976,-0.756355855742923,-0.024724416780539382,0.04670908070296109,-0.13599401113043985,0,70,255.0,255.0,255.0
171,8.55,-3.363953850106632,3.648169026807015,-7.853486675086792,-0.14969932556793358,0.2665439761403215,-0.7630889434433373,-0.024977197727045833,0.04645185964999401,-0.13332949688612936,0,70,255.0,255.0,255.0
172,8.6,-3.3714701432075818,3.6615541832631546,-7.891806673915798,-0.1509545049779485,0.26886013859649693,-0.7696888054315358,-0.025229978673552277,0.04619463859702693,-0.13066498264181894,0,70,255.0,255.0,255.0
173,8.65,-3.379049511255216,3.6750548263157876,-7.930453335201408,-0.15222232343528877,0.2711634400000242,-0.7761554417075192,-0.025482759620058727,0.04593741754405984,-0.12800046839750842,0,70,255.0,255.0,255.0
174,8.700000000000001,-3.3866925862019,3.6886703129122798,-7.9694199976580125,-0.1535027809399544,0.273453880350903,-0.782488852271287,-0.025735540566565178,0.045680196491092756,-0.12533595415319793,0,70,255.0,255.0,255.0
175,8.75,-3.3944,3.7024,-8.0087,-0.1547958774919453,0.2757314596491335,-0.7886890371228389,-0.02598832151307162,0.04542297543812612,-0.12267143990888396,0,70,255.0,255.0,255.0
176,8.8,-3.4021721904411266,3.7162429330385964,-8.048287745221804,-0.1560899634458693,0.2779774886315719,-0.7948198530649095,-0.025775116643888738,0.044418183859410286,-0.12256119777393674,0,70,255.0,255.0,255.0
177,8.85,-3.410008818673863,3.7301969115368414,-8.088181893438044,-0.15737338915633417,0.28017327803507447,-0.8009451569002325,-0.02556191177470586,0.043413392280694484,-0.12245095563898953,0,70,255.0,255.0,255.0
178,8.9,-3.4179093516860357,3.744259423515788,-8.128382169043382,-0.1586461546233399,0.28231882785964135,-0.8070649486288084,-0.025348706905522975,0.04240860070197864,-0.12234071350404233,0,70,255.0,255.0,255.0
179,8.950000000000001,-3.425873256465473,3.7584279569964902,-8.168888296432481,-0.15990825984688647,0.28441413810527244,-0.8131792282506369,-0.02513550203634009,0.0414038091232628,-0.12223047136909511,0,70,255.0,255.0,255.0
180,9.0,-3.4339,3.7727,-8.2097,-0.16115970482697392,0.28645920877196757,-0.819287995765718,-0.02492229716715788,0.04039901754454567,-0.12212022923414878,0,70,255.0,255.0,255.0
181,9.05,-3.441988588128862,3.787073641038599,-8.25081674402599,-0.16237282064858755,0.2884900693333907,-0.8253756442970274,-0.023602335697386883,0.04083540491237754,-0.121385712018224,0,70,255.0,255.0,255.0
182,9.1,-3.4501361820969674,3.8015493705894787,-8.292236952332022,-0.1635199383967126,0.29054274926320534,-0.8314265669675404,-0.02228237422761593,0.041271792280209406,-0.12065119480229924,0,70,255.0,255.0,255.0
183,9.15,-3.4583394820006417,3.8161282796210596,-8.333958788625063,-0.16460105807134914,0.2926172485614116,-0.8374407637772573,-0.02096241275784493,0.04170817964804128,-0.11991667758637448,0,70,255.0,255.0,255.0
184,9.200000000000001,-3.4665951879362105,3.8308114591017604,-8.37598041661207,-0.16561617967249712,0.2947135672280095,-0.8434182347261779,-0.01964245128807393,0.04214456701587316,-0.1191821603704497,0,70,255.0,255.0,255.0
185,9.25,-3.4749,3.8456,-8.4183,-0.16656530320015656,0.2968317052629989,-0.8493589798143022,-0.018322489818302756,0.04258095438370413,-0.11844764315452849,0,70,255.0,255.0,255.0
186,9.3,-3.4832518570434257,3.860494502807008,-8.460915678674242,-0.1675227539597784,0.2989422340348687,-0.8552615697469942,-0.01997554056656974,0.041840196491085,-0.11765595415314747,0,70,255.0,255.0,255.0
187,9.35,-3.4916536529382682,3.875493606105243,-8.503825497233866,-0.16856285725681353,0.30101572491210743,-0.8611245752296168,-0.021628591314836663,0.041099438598465904,-0.1168642651517665,0,70,255.0,255.0,255.0
188,9.4,-3.500109520311397,3.8905954579999746,-8.547027476456368,-0.16968561309126204,0.3030521778947152,-0.8669479962621708,-0.023281642063103646,0.04035868070584678,-0.11607257615038548,0,70,255.0,255.0,255.0
189,9.450000000000001,-3.5086235917896844,3.905798206596471,-8.590519637119248,-0.17089102146312393,0.30505159298269213,-0.8727318328446556,-0.024934692811370632,0.03961792281322765,-0.11528088714900447,0,70,255.0,255.0,255.0
190,9.5,-3.5172,3.9211,-8.6343,-0.1721790823723991,0.307013970176038,-0.8784760849770713,-0.02658774355963711,0.03887716492060678,-0.11448919814762792,0,70,255.0,255.0,255.0
191,9.55,-3.525841583697435,3.9364995477333706,-8.678366141277047,-0.17347216351229855,0.3089729945271346,-0.88415407671499,-0.02513550203634034,0.03948380912325745,-0.11263047136911887,0,70,255.0,255.0,255.0
192,9.600000000000001,-3.5345460061499607,3.9519978049895492,-8.722713858732519,-0.17469263257603318,0.3109623510883638,-0.8897391321139834,-0.02368326051304357,0.04009045332590812,-0.11077174459060983,0,70,255.0,255.0,255.0
193,9.65,-3.5433096367537686,3.9675962883790423,-8.767338505549462,-0.1758404895636029,0.31298203985972545,-0.895231251174051,-0.022231018989746856,0.040697097528558775,-0.10891301781210085,0,70,255.0,255.0,255.0
194,9.700000000000001,-3.552128844905051,3.9832965145123578,-8.81223543491094,-0.17691573447500783,0.31503206084121965,-0.9006304338951934,-0.020778777466450085,0.041303741731209445,-0.10705429103359179,0,70,255.0,255.0,255.0
195,9.75,-3.561,3.9991,-8.8574,-0.17791836731024788,0.31711241403284635,-0.9059366802774101,-0.019326535943153145,0.041910385933860095,-0.10519556425508103,0,70,255.0,255.0,255.0
196,9.8,-3.569920208166835,4.015007306259511,-8.902828556217573,-0.17889259199102855,0.31916578785659006,-0.9112101233930484,-0.01964245128807414,0.04022456701588612,-0.10574216037044676,0,70,255.0,255.0,255.0
197,9.850000000000001,-3.578889522461891,4.03101517393656,-8.94852146783607,-0.17988261243905532,0.321134870734435,-0.916510896314455,-0.019958366632995137,0.038538748097912155,-0.10628875648581249,0,70,255.0,255.0,255.0
198,9.9,-3.587908732673528,4.047119388483856,-8.99448010134578,-0.18088842865432808,0.32301966266638127,-0.9218389990416296,-0.02027428197791612,0.036852929179938244,-0.10683535260117819,0,70,255.0,255.0,255.0
199,9.950000000000001,-3.59697862859011,4.0633157353541005,-9.040705823236996,-0.18191004063684693,0.32482016365242883,-0.9271944315745728,-0.02059019732283712,0.03516711026196427,-0.10738194871654391,0,70,255.0,255.0,255.0
200,10.0,-3.6061,4.0796,-9.0872,-0.18294744838661178,0.3265363736925777,-0.932577193913284,-0.020906112667758103,0.033481291343990804,-0.10792854483190961,0,70,255.0,255.0,255.0
201,10.05,-3.615273583635225,4.095968827228587,-9.133962833852667,-0.1839974685235898,0.32821985404650805,-0.9379174297128074,-0.02109469281136236,0.033857922813223244,-0.10568088714902948,0,70,255.0,255.0,255.0
202,10.100000000000001,-3.6244999040024792,4.112422299264209,-9.180989869923213,-0.18505691766774804,0.32992216597390006,-0.9431452826281871,-0.02128327295496662,0.034234554282455684,-0.10343322946614937,0,70,255.0,255.0,255.0
203,10.15,-3.63377943255212,4.128961357685535,-9.228275489067418,-0.18612579581908645,0.3316433094747536,-0.9482607526594224,-0.021471853098570873,0.03461118575168812,-0.10118557178326933,0,70,255.0,255.0,255.0
204,10.200000000000001,-3.643112640734507,4.145586944071242,-9.275814072141085,-0.18720410297760512,0.3333832845490689,-0.953263839806514,-0.02166043324217513,0.03498781722092056,-0.09893791410038921,0,70,255.0,255.0,255.0
205,10.25,-3.6525,4.1623,-9.3236,-0.18829183914330397,0.3351420911968457,-0.9581545440694614,-0.021849013385779825,0.03536444869015298,-0.09669025641751006,0,70,255.0,255.0,255.0
206,10.3,-3.6619414572922646,4.179101384826139,-9.371628908371752,-0.18935753391460994,0.3369147959573797,-0.9630081577557387,-0.020778777466458582,0.03554374173120572,-0.09745429103357922,0,70,255.0,255.0,255.0
207,10.350000000000001,-3.671434861528195,4.195991629006606,-9.41990145247109,-0.19036971688994986,0.3386964653699663,-0.9678999731728194,-0.01970854154713734,0.03572303477225845,-0.09821832564964839,0,70,255.0,255.0,255.0
208,10.4,-3.680977537117993,4.212971180774003,-9.468419542384547,-0.19132838806932365,0.34048709943460553,-0.9728299903207035,-0.018638305627816137,0.03590232781331117,-0.09898236026571752,0,70,255.0,255.0,255.0
209,10.450000000000001,-3.690566808471861,4.230040488360935,-9.517185088198673,-0.19223354745273144,0.34228669815129736,-0.9777982091993912,-0.017568069708494893,0.03608162085436391,-0.09974639488178669,0,70,255.0,255.0,255.0
210,10.5,-3.7002,4.2472,-9.5662,-0.19308519504017319,0.34409526152004183,-0.9828046298088822,-0.01649783378917391,0.03626091389541353,-0.10051042949785405,0,70,255.0,255.0,255.0
211,10.55,-3.7098749871957177,4.264449633466858,-9.615464732660325,-0.19391639581797349,0.34588096212397607,-0.987761939264241,-0.016750197322837404,0.03516711026195523,-0.09778194871649713,0,70,255.0,255.0,255.0
212,10.600000000000001,-3.7195918498847425,4.28178718470937,-9.664973920192441,-0.19476021477245695,0.3476119725462374,-0.992582824680532,-0.017002560856500898,0.03407330662849694,-0.09505346793514022,0,70,255.0,255.0,255.0
213,10.65,-3.729351218975908,4.2992099192184545,-9.714720741394393,-0.19561665190362357,0.34928829278682577,-0.997267286057755,-0.017254924390164385,0.032979502995038684,-0.09232498715378339,0,70,255.0,255.0,255.0
214,10.700000000000001,-3.7391537253780496,4.316715102485024,-9.764698375064231,-0.19648570721147338,0.35090992284574124,-1.0018153233959102,-0.01750728792382788,0.03188569936158039,-0.08959650637242647,0,70,255.0,255.0,255.0
215,10.75,-3.749,4.3343,-9.8149,-0.19736738069600637,0.3524768627229838,-1.0062269366949976,-0.017759651457491143,0.03079189572812302,-0.08686802559106788,0,70,255.0,255.0,255.0
216,10.8,-3.7588905939248662,4.3519624813064315,-9.86532016098695,-0.19825688281349782,0.35402535554671016,-1.0105840851872856,-0.017820433242166932,0.03114781722093048,-0.08741791410045076,0,70,255.0,255.0,255.0
217,10.850000000000001,-3.7688257389328372,4.369702832155915,-9.915958866759153,-0.1991494240202231,0.35559164444507685,-1.0149687281050428,-0.017881215026842725,0.03150373871373794,-0.08796780260983363,0,70,255.0,255.0,255.0
218,10.9,-3.7788055869783754,4.3875219423521825,-9.96681749203788,-0.2000450043161821,0.35717572941808395,-1.019380865448269,-0.017941996811518514,0.03185966020654538,-0.08851769111921648,0,70,255.0,255.0,255.0
219,10.950000000000001,-3.7888302900159427,4.405420701698968,-10.017897411544405,-0.20094362370137495,0.35877761046573137,-1.0238204972169644,-0.018002778596194303,0.03221558169935285,-0.08906757962859936,0,70,255.0,255.0,255.0
220,11.0,-3.7989,4.4234,-10.0692,-0.20184528217580155,0.36039728758801914,-1.0282876234111287,-0.018063560380870314,0.03257150319216073,-0.08961746813798044,0,70,255.0,255.0,255.0
221,11.05,-3.8090146371048195,4.4414604413074175,-10.120725823391874,-0.2027360729280357,0.3620176156891825,-1.0327337199866227,-0.01756806970849513,0.03224162085437161,-0.0882263948817794,0,70,255.0,255.0,255.0
222,11.100000000000001,-3.8191731943839105,4.459601486666971,-10.17247221277095,-0.2036020891466511,0.3636214496734564,-1.0371102628993067,-0.017072579036119948,0.03191173851658248,-0.08683532162557835,0,70,255.0,255.0,255.0
223,11.15,-3.8293744331105914,4.477822311372814,-10.22443569045409,-0.2044433308316477,0.3652087895408407,-1.0414172521491807,-0.01657708836374478,0.03158185617879336,-0.08544424836937735,0,70,255.0,255.0,255.0
224,11.200000000000001,-3.8396171145581817,4.496122090719107,-10.276612778758155,-0.20525979798302557,0.36677963529133567,-1.0456546877362445,-0.016081597691369597,0.031251973841004234,-0.08405317511317631,0,70,255.0,255.0,255.0
225,11.25,-3.8499,4.5145,-10.329,-0.20605149060078462,0.3683339869249411,-1.0498225696604984,-0.015586107018992879,0.030922091503214233,-0.08266210185697709,0,70,255.0,255.0,255.0
226,11.3,-3.860222057655857,4.532954953463901,-10.381594145445563,-0.20683082547435527,0.3698561816965607,-1.053937034866232,-0.01558728792383186,0.02996569936156773,-0.08191650637237549,0,70,255.0,255.0,255.0
227,11.350000000000001,-3.870583083531523,4.551484821176205,-10.434393082157055,-0.20761021939316782,0.37133055686109795,-1.058014220297736,-0.015588468828670843,0.02900930721992123,-0.08117091088777391,0,70,255.0,255.0,255.0
228,11.4,-3.8809830805792607,4.570087212156559,-10.487394946145766,-0.20838967235722233,0.3727571124185528,-1.0620541259550096,-0.015589649733509825,0.02805291507827476,-0.08042531540317234,0,70,255.0,255.0,255.0
229,11.450000000000001,-3.8914220517513325,4.588759735424609,-10.540597873422985,-0.2091691843665188,0.3741358483689254,-1.0660567518380533,-0.015590830638348808,0.027096522936628255,-0.07967971991857076,0,70,255.0,255.0,255.0
230,11.5,-3.9019,4.6075,-10.594,-0.2099487554210572,0.3754667647122156,-1.0700220979468666,-0.015592011543188233,0.026140130794981342,-0.07893412443395853,0,70,255.0,255.0,255.0
231,11.55,-3.912417132271754,4.626306144836982,-10.647599194825885,-0.2107406251745419,0.37678165752457426,-1.0739341405484313,-0.016082778596199495,0.026455581699366442,-0.07754757962861979,0,70,255.0,255.0,255.0
232,11.600000000000001,-3.9229744714899986,4.645178428628212,-10.701392258600839,-0.21155703328067718,0.37811232288215224,-1.0777768559097287,-0.016573545649210757,0.026771032603751542,-0.07616103482328103,0,70,255.0,255.0,255.0
233,11.65,-3.933573244572366,4.66411764000095,-10.755375724962851,-0.21239797973946298,0.37945876078494944,-1.0815502440307592,-0.017064312702221997,0.027086483508136628,-0.07477449001794233,0,70,255.0,255.0,255.0
234,11.700000000000001,-3.9442146784364893,4.6831245675824595,-10.80954612754991,-0.21326346455089937,0.38082097123296593,-1.085254304911523,-0.01755507975523326,0.027401934412521728,-0.07338794521260358,0,70,255.0,255.0,255.0
235,11.75,-3.9549,4.7022,-10.8639,-0.21415348771498632,0.3821989542262016,-1.0888890385520196,-0.018045846808243837,0.027717385316906817,-0.07200140040726488,0,70,255.0,255.0,255.0
236,11.8,-3.965629413257128,4.7213444671881755,-10.918434675250904,-0.21500667382747643,0.3835771882051492,-1.0925024029400323,-0.016081597691359813,0.02741197384099587,-0.07253317511324121,0,70,255.0,255.0,255.0
237,11.850000000000001,-3.976399030508484,4.740557464310952,-10.973150683439593,-0.21576164748412235,0.3849401516103012,-1.0961423560633439,-0.014117348574475785,0.02710656236508492,-0.07306494981921753,0,70,255.0,255.0,255.0
238,11.9,-3.9872039411312756,4.759838227839642,-11.028049354002826,-0.216418408684924,0.3862878444416577,-1.099808897921954,-0.01215309945759183,0.026801150889173984,-0.07359672452519384,0,70,255.0,255.0,255.0
239,11.950000000000001,-3.9980392345027123,4.779185994245555,-11.083132016377377,-0.21697695742988152,0.38762026669921856,-1.1035020285158632,-0.010188850340707803,0.026495739413263036,-0.07412849923117017,0,70,255.0,255.0,255.0
240,12.0,-4.0089,4.7986,-11.1384,-0.21743729371899476,0.388937418382984,-1.1072217478450708,-0.008224601223822292,0.026190327937352542,-0.07466027393713759,0,70,255.0,255.0,255.0
241,12.05,-4.019782814699736,4.818079186410321,-11.193853304170503,-0.21788867951554938,0.3902215896548332,-1.110888247691462,-0.009830830638362077,0.02517652293661515,-0.07199971991851367,0,70,255.0,255.0,255.0
242,12.100000000000001,-4.030690206476067,4.837621314127984,-11.2494866076408,-0.21842037678283097,0.39145507067664553,-1.1144217198369224,-0.01143706005290186,0.024162717935877757,-0.06933916589988974,0,70,255.0,255.0,255.0
243,12.15,-4.04162619090253,4.857223848640484,-11.305293259025845,-0.21903238552083956,0.392637861448421,-1.117822164281451,-0.013043289467441588,0.023148912935140403,-0.06667861188126592,0,70,255.0,255.0,255.0
244,12.200000000000001,-4.052594783552663,4.876884255435325,-11.361266606940596,-0.21972470572957514,0.39376996197015957,-1.121089581025049,-0.014649518881981374,0.022135107934403007,-0.064018057862642,0,70,255.0,255.0,255.0
245,12.25,-4.0636,4.8966,-11.4174,-0.22049733740903768,0.39485137224186134,-1.124223970067715,-0.01625574829652021,0.02112130293366521,-0.061357503844019945,0,70,255.0,255.0,255.0
246,12.3,-4.074644927943931,4.9163691871705435,-11.473688108067098,-0.22129460811033141,0.39592045317551633,-1.1273046062941297,-0.01563507975522901,0.021641934412534623,-0.061867945212565806,0,70,255.0,255.0,255.0
247,12.350000000000001,-4.08572894358725,4.936192479177119,-11.530130885997222,-0.22206084538456058,0.3970155656831148,-1.1304107645889718,-0.01501441121393781,0.022162565891404033,-0.06237838658111167,0,70,255.0,255.0,255.0
248,12.4,-4.096850495258602,4.956071177598421,-11.5867296098938,-0.22279604923172522,0.39813670976465676,-1.1335424449522409,-0.014393742672646632,0.022683197370273425,-0.06288882794965751,0,70,255.0,255.0,255.0
249,12.450000000000001,-4.108008031286637,4.976006584013149,-11.643485555860254,-0.22350021965182526,0.3992838854201422,-1.1366996473839375,-0.013773074131355431,0.02320382884914284,-0.06339926931820337,0,70,255.0,255.0,255.0
250,12.5,-4.1192,4.996,-11.7004,-0.22417335664486074,0.4004570926495711,-1.1398823718840614,-0.013152405590065142,0.02372446032801445,-0.06390971068674745,0,70,255.0,255.0,255.0
251,12.55,-4.130424673524544,5.016052064907508,-11.757473463561123,-0.22480488804312976,0.40161659764310287,-1.14304532713201,-0.012108850340694607,0.022655739413256076,-0.06260849923119023,0,70,255.0,255.0,255.0
252,12.600000000000001,-4.141679619174939,5.0361607691635495,-11.814703448370324,-0.2253842416789302,0.40272266659089667,-1.1461432218071805,-0.01106529509132407,0.021587018498497704,-0.06130728777563302,0,70,255.0,255.0,255.0
253,12.65,-4.152962228063062,5.056323440965835,-11.872086701398961,-0.22591141755226216,0.4037752994929526,-1.1491760559095732,-0.010021739841953573,0.020518297583739367,-0.06000607632007585,0,70,255.0,255.0,255.0
254,12.700000000000001,-4.1642698913007905,5.076537408512081,-11.929619969618399,-0.22638641566312556,0.40477449634927065,-1.1521438294391881,-0.008978184592583038,0.019449576668980995,-0.05870486486451864,0,70,255.0,255.0,255.0
255,12.75,-4.1756,5.0968,-11.9873,-0.22680923601152048,0.4057202571598508,-1.155046542396025,-0.00793462934321365,0.01838085575422488,-0.05740365340895792,0,70,255.0,255.0,255.0
256,12.8,-4.186950777957897,5.117108953199427,-12.045123637688418,-0.22722983971715024,0.4066371562520667,-1.1578900851778156,-0.0088895188819775,0.018295107934412247,-0.05633805786265852,0,70,255.0,255.0,255.0
257,12.850000000000001,-4.1983237797129975,5.137463644168691,-12.103088120521495,-0.22769818789971824,0.40754976795329206,-1.160680348182291,-0.00984440842074135,0.018209360114599612,-0.05527246231635911,0,70,255.0,255.0,255.0
258,12.9,-4.209721392489151,5.1578638585382395,-12.16119078451036,-0.22821428055922438,0.4084580922635267,-1.1634173314094514,-0.010799297959505167,0.018123612294786984,-0.05420686677005974,0,70,255.0,255.0,255.0
259,12.950000000000001,-4.221146003510203,5.178309381938527,-12.219428965666152,-0.22877811769566875,0.4093621291827707,-1.1661010348592968,-0.011754187498269017,0.01803786447497435,-0.053141271223760334,0,70,255.0,255.0,255.0
260,13.0,-4.2326,5.1988,-12.2778,-0.22938969930905131,0.4102618787110241,-1.1687314585318271,-0.012709077037033056,0.01795211665516172,-0.052075675677455635,0,70,255.0,255.0,255.0
261,13.05,-4.244085014643871,5.219335322294785,-12.336301585685204,-0.23000375308826157,0.41114677734863164,-1.1713303321567192,-0.01185307413137705,0.017443828849139902,-0.05187926931823021,0,70,255.0,255.0,255.0
262,13.100000000000001,-4.255599661973071,5.239914254161692,-12.394932869543705,-0.23057500672218906,0.4120062615959381,-1.1739193854636503,-0.010997071225721043,0.01693554104311808,-0.05168286295900479,0,70,255.0,255.0,255.0
263,13.15,-4.267141801980336,5.260535524881207,-12.453693360559603,-0.23110346021083367,0.41284033145294347,-1.1764986184526196,-0.010141068320065066,0.01642725323709628,-0.05148645659977937,0,70,255.0,255.0,255.0
264,13.200000000000001,-4.2787092946584,5.281197863733815,-12.512582567717002,-0.23158911355419554,0.41364898691964774,-1.1790680311236281,-0.00928506541440906,0.01591896543107446,-0.05129005024055395,0,70,255.0,255.0,255.0
265,13.25,-4.2903,5.3019,-12.5716,-0.23203196675227458,0.4144322279960509,-1.1816276234766752,-0.008429062508753082,0.015410677625051772,-0.05109364388132498,0,70,255.0,255.0,255.0
266,13.3,-4.301912363466618,5.322640957621435,-12.630744419570762,-0.232467147929808,0.4152077343534015,-1.18413258619532,-0.0089781845925836,0.015609576668973715,-0.04910486486447103,0,70,255.0,255.0,255.0
267,13.350000000000001,-4.313547172394718,5.3434209391845435,-12.690011601303688,-0.23292978521153296,0.41599318566294824,-1.1865381099631223,-0.00952730667641412,0.015808475712895658,-0.047116085847617076,0,70,255.0,255.0,255.0
268,13.4,-4.325205799589508,5.364240441936933,-12.749396573251227,-0.23341987859744942,0.4167885819246911,-1.1888441947800816,-0.010076428760244619,0.016007374756817596,-0.045127306830763186,0,70,255.0,255.0,255.0
269,13.450000000000001,-4.3368896178562,5.385099963126216,-12.808894363465846,-0.2339374280875574,0.41759392313863003,-1.1910508406461986,-0.010625550844075139,0.016206273800739537,-0.043138527813909235,0,70,255.0,255.0,255.0
270,13.5,-4.3486,5.406,-12.8685,-0.2344824336818569,0.41840920930476505,-1.193158047561473,-0.011174672927904972,0.016405172844660587,-0.04114974879705002,0,70,255.0,255.0,255.0
271,13.55,-4.360337531489658,5.426940847219473,-12.928209536031748,-0.23500765519251052,0.4192222852377565,-1.1952273230619936,-0.009834187498239435,0.016117864474995698,-0.04162127122378153,0,70,255.0,255.0,255.0
272,13.600000000000001,-4.372099648448061,5.447921989100135,-12.988023125241556,-0.23546585243168086,0.42002099575226465,-1.197320174683851,-0.0084937020685739,0.01583055610533081,-0.04209279365051303,0,70,255.0,255.0,255.0
273,13.65,-4.383882999661634,5.468942707371058,-13.047941946435488,-0.2358570253993679,0.4208053408482895,-1.199436602427045,-0.007153216638908412,0.01554324773566593,-0.042564316077244514,0,70,255.0,255.0,255.0
274,13.700000000000001,-4.395684233916806,5.4900022837613225,-13.107967178419615,-0.23618117409557168,0.42157532052583124,-1.2015766062915756,-0.005812731209242876,0.015255939366001042,-0.04303583850397602,0,70,255.0,255.0,255.0
275,13.75,-4.4075,5.5111,-13.1681,-0.2364382985202922,0.4223309347848896,-1.2037401862774424,-0.004472245779576944,0.01496863099633483,-0.04350736093070218,0,70,255.0,255.0,255.0
276,13.8,-4.4193279105747525,5.532234853500671,-13.228340636302251,-0.2366862313001425,0.4230551246955745,-1.2058701215567234,-0.0054450654144350494,0.013998965431061435,-0.041690050240540774,0,70,255.0,255.0,255.0
277,13.850000000000001,-4.431169433813044,5.553404704414921,-13.2886854977301,-0.23698280506173572,0.4237308313279957,-1.2079091913014965,-0.006417885049293154,0.013029299865788041,-0.03987273955037937,0,70,255.0,255.0,255.0
278,13.9,-4.443027001763956,5.574607128578833,-13.349130041006823,-0.2373280198050718,0.4243580546821533,-1.2098573955117615,-0.007390704684151224,0.01205963430051468,-0.03805542886021803,0,70,255.0,255.0,255.0
279,13.950000000000001,-4.454903046476579,5.595839701828498,-13.4096697228557,-0.2377218755301508,0.4249367947580472,-1.2117147341875183,-0.008363524319009328,0.011089968735241287,-0.03623811817005663,0,70,255.0,255.0,255.0
280,14.0,-4.4668,5.6171,-13.4703,-0.23816437223697273,0.42546705155567743,-1.2134812073287669,-0.009336343953867399,0.010120303169967038,-0.03442080747989351,0,70,255.0,255.0,255.0
281,14.05,-4.478719626211329,5.638386138777842,-13.531016718759261,-0.2386154196069214,0.425981215979945,-1.2151801907111108,-0.008705550844079282,0.010446273800735466,-0.03353852781386378,0,70,255.0,255.0,255.0
282,14.100000000000001,-4.490661016299768,5.659698393240187,-13.59181728383806,-0.23903492732138065,0.426511678935751,-1.2168350601101532,-0.008074757734291164,0.010772244431503895,-0.03265624814783405,0,70,255.0,255.0,255.0
283,14.15,-4.502622593282542,5.68103757831361,-13.652699489537222,-0.23942289538035053,0.4270584404230954,-1.2184458155258941,-0.00744396462450307,0.011098215062272312,-0.03177396848180435,0,70,255.0,255.0,255.0
284,14.200000000000001,-4.514602780176878,5.702404508924689,-13.713661130157591,-0.23977932378383096,0.4276215004419782,-1.2200124569583337,-0.006813171514714953,0.011424185693040741,-0.030891688815774625,0,70,255.0,255.0,255.0
285,14.25,-4.5266,5.7238,-13.7747,-0.24010421253182204,0.4282008589923994,-1.2215349844074717,-0.006182378404926636,0.011750156323807825,-0.030009409149744926,0,70,255.0,255.0,255.0
286,14.3,-4.538612784579933,5.745224591387959,-13.835814088660708,-0.24040409027217585,0.42878001138464483,-1.2230251155988163,-0.0058127312092254475,0.011415939366009105,-0.02959583850403859,0,70,255.0,255.0,255.0
287,14.350000000000001,-4.550640100987888,5.766677722624333,-13.897002166917678,-0.24068548565274459,0.42934245292900036,-1.2244945682578756,-0.005443084013524258,0.011081722408210383,-0.029182267858332254,0,70,255.0,255.0,255.0
288,14.4,-4.562681025105877,5.788158558166727,-13.958263200844291,-0.24094839867352827,0.4298881836254659,-1.2259433423846495,-0.0050734368178230824,0.010747505450411674,-0.028768697212625934,0,70,255.0,255.0,255.0
289,14.450000000000001,-4.574734632815911,5.8096662624727475,-14.019596156513938,-0.2411928293345269,0.4304172034740415,-1.227371437979138,-0.004703789622121893,0.010413288492612954,-0.0283551265669196,0,70,255.0,255.0,255.0
290,14.5,-4.5868,5.8312,-14.081,-0.24141877763574043,0.4309295124747272,-1.2287788550413412,-0.004334142426419163,0.010079071534814688,-0.027941555921204397,0,70,255.0,255.0,255.0
291,14.55,-4.598876435468942,5.852758695670322,-14.142473326597905,-0.24164021930437637,0.4314107384814783,-1.2301433468936223,-0.004523524319017816,0.009169968735228538,-0.02663811817004065,0,70,255.0,255.0,255.0
292,14.600000000000001,-4.610964179748682,5.874340316262482,-14.204013248491238,-0.24187113006764221,0.4318465093482501,-1.2314426668583454,-0.0047129062116164685,0.00826086593564239,-0.025334680418876904,0,70,255.0,255.0,255.0
293,14.65,-4.62306370629395,5.895942589019481,-14.265616507085614,-0.24211150992553798,0.4322368250750425,-1.23267681493551,-0.004902288104215115,0.007351763136056271,-0.024031242667713205,0,70,255.0,255.0,255.0
294,14.700000000000001,-4.635175488559479,5.91756324118432,-14.327279843786663,-0.24236135887806373,0.43258168566185573,-1.2338457911251166,-0.005091669996813768,0.006442660336470122,-0.02272780491654946,0,70,255.0,255.0,255.0
295,14.75,-4.6473,5.9392,-14.389,-0.24262067692521938,0.4328810911086896,-1.234949595427165,-0.005281051889412858,0.00553355753688356,-0.02142436716538576,0,70,255.0,255.0,255.0
296,14.8,-4.6594374735443,5.960851025930754,-14.450774204947669,-0.24287503251032228,0.433161034689438,-1.2360174968266937,-0.004893171514702916,0.005664185693052827,-0.021291688815764685,0,70,255.0,255.0,255.0
297,14.850000000000001,-4.671587180017387,5.9825162123257405,-14.51260163911738,-0.24310999407668968,0.4334475096779949,-1.2370787643087415,-0.004505291139992973,0.005794813849222095,-0.02115901046614361,0,70,255.0,255.0,255.0
298,14.9,-4.6837481497183235,6.00419588575535,-14.574481970813252,-0.2433255616243216,0.4337405160743602,-1.238133397873308,-0.004117410765283045,0.005925442005391358,-0.02102633211652254,0,70,255.0,255.0,255.0
299,14.950000000000001,-4.695919412946173,6.0258903727899735,-14.636414868339418,-0.24352173515321798,0.43404005387853406,-1.2391813975203938,-0.003729530390573102,0.006056070161560625,-0.020893653766901464,0,70,255.0,255.0,255.0
300,15.0,-4.7081,6.0476,-14.6984,-0.24369851466337886,0.43434612309051635,-1.2402227632499983,-0.003341650015861619,0.006186698317728556,-0.020760975417283944,0,70,255.0,255.0,255.0
301,15.05,-4.7202888703538575,6.069325200606663,-14.760436253611417,-0.24385165065432854,0.4346651227607747,-1.2412106657996038,-0.0027837896221250356,0.006573288492604595,-0.018755126566938757,0,70,255.0,255.0,255.0
302,15.100000000000001,-4.7324847001817725,6.091066834434557,-14.822519395039254,-0.24397689362559138,0.43500345193977685,-1.242098275906692,-0.002225929228388452,0.006959878667480634,-0.01674927771659357,0,70,255.0,255.0,255.0
303,15.15,-4.7446860948327565,6.112825867959119,-14.884644409661378,-0.24407424357716737,0.43536111062752275,-1.242885593571263,-0.0016680688346518884,0.00734646884235666,-0.01474342886624845,0,70,255.0,255.0,255.0
304,15.200000000000001,-4.756891659655826,6.1346032676557884,-14.94680628285567,-0.24414370050905654,0.4357380988240125,-1.2435726187933172,-0.0011102084409153048,0.007733059017232699,-0.012737580015903261,0,70,255.0,255.0,255.0
305,15.25,-4.7691,6.1564,-15.009,-0.2441852644212589,0.436134416529246,-1.2441593515728533,-0.0005523480471774089,0.00811964919210606,-0.010731731165556369,0,70,255.0,255.0,255.0
306,15.3,-4.781310245040268,6.178216171642595,-15.071221580606665,-0.2442303648723589,0.4364984742674604,-1.244707839974905,-0.0012516699968226786,0.006442660336469406,-0.011207804916507776,0,70,255.0,255.0,255.0
307,15.350000000000001,-4.793523619255527,6.200048449936034,-15.13347118072562,-0.2443104314209412,0.43677868256289293,-1.2452801320645042,-0.001950991946467948,0.004765671480832753,-0.011683878667459182,0,70,255.0,255.0,255.0
308,15.4,-4.805741870950653,6.2218926424081715,-15.19574999054124,-0.2444254640670057,0.43697504141554366,-1.2458762278416509,-0.002650313896113193,0.0030886826251961584,-0.012159952418410572,0,70,255.0,255.0,255.0
309,15.450000000000001,-4.8179667484305195,6.243744556586875,-15.25805920023791,-0.24457546281055248,0.4370875508254126,-1.246496127306345,-0.0033496358457584625,0.001411693769559505,-0.01263602616936198,0,70,255.0,255.0,255.0
310,15.5,-4.8302,6.2656,-15.3204,-0.2447604276515815,0.4371162107924996,-1.2471398304585868,-0.004048957795402597,-0.0002652950860779768,-0.01311209992030804,0,70,255.0,255.0,255.0
311,15.55,-4.842442949485071,6.287455712822954,-15.382772623961932,-0.2449548898562309,0.437116980169387,-1.2477499743007676,-0.0037295303905723063,0.00029607016157396607,-0.011293653766924525,0,70,255.0,255.0,255.0
312,15.600000000000001,-4.854695222796119,6.309312165821312,-15.445173482058284,-0.24513338069063872,0.437145817808657,-1.2482691958352792,-0.003410102985742016,0.0008574354092259089,-0.009475207613541007,0,70,255.0,255.0,255.0
313,15.65,-4.866956021364631,6.331170762408193,-15.507598028173666,-0.2452959001548051,0.43720272371030966,-1.2486974950621217,-0.003090675580911737,0.0014188006568778317,-0.007656761460157556,0,70,255.0,255.0,255.0
314,15.700000000000001,-4.879224546622096,6.3530329059967166,-15.570041716192701,-0.24544244824872993,0.4372876978743448,-1.249034871981295,-0.0027712481760814468,0.0019801659045297747,-0.0058383153067740395,0,70,255.0,255.0,255.0
315,15.75,-4.8915,6.3749,-15.6325,-0.2455730249724132,0.43740074030076254,-1.249281326592799,-0.002451820771249613,0.0025415311521821415,-0.004019869153388811,0,70,255.0,255.0,255.0
316,15.8,-4.903781157019447,6.39677297706559,-15.694968723545609,-0.2456620757027173,0.4375136050549974,-1.2494602628220317,-0.0011102084409144984,0.0019730590172115565,-0.0031375800159253106,0,70,255.0,255.0,255.0
317,15.850000000000001,-4.916065089559997,6.418650886778721,-15.757445291041257,-0.24568404581650466,0.43759804620248366,-1.2495950845943915,0.0002314038894206164,0.0014045868822409717,-0.0022552908784618103,0,70,255.0,255.0,255.0
318,15.9,-4.928348443590822,6.440532307959058,-15.8199274967641,-0.24563893531377526,0.43765406374322147,-1.2496857919098778,0.0015730162197556833,0.000836114747270407,-0.0013730017409983412,0,70,255.0,255.0,255.0
319,15.950000000000001,-4.940627865081099,6.462415819426265,-15.882413134991296,-0.24552674419452908,0.43768165767721073,-1.2497323847684914,0.0029146285500907983,0.0002676426122998222,-0.000490712603534841,0,70,255.0,255.0,255.0
320,16.0,-4.9529,6.4843,-15.9449,-0.24534747245876615,0.43768082800445146,-1.2497348631702316,0.004256240880426976,-0.0003008295226698543,0.00039157653392329905,0,70,255.0,255.0,255.0
321,16.05,-4.965162822437141,6.506183578914692,-16.00738608185564,-0.24518080733289932,0.4376605996106238,-1.2497049744111166,0.0024103641542457324,-0.000508306230436076,0.0008039738306767023,0,70,255.0,255.0,255.0
322,16.1,-4.977419618963895,6.528065887063806,-16.069870153776698,-0.24510643604334156,0.43762999738140784,-1.249654465787164,0.0005644874280644895,-0.0007157829382022976,0.0012163711274301055,0,70,255.0,255.0,255.0
323,16.150000000000002,-4.98967500427208,6.549946405755576,-16.132351184769945,-0.24512435859009288,0.43758902131680355,-1.2495833372983736,-0.0012813892981167543,-0.0009232596459685194,0.0016287684241835085,0,70,255.0,255.0,255.0
324,16.2,-5.001933593053509,6.57182461629823,-16.194828143842123,-0.24523457497315324,0.43753767141681105,-1.2494915889447455,-0.003127266024297866,-0.0011307363537347262,0.0020411657209368824,0,70,255.0,255.0,255.0
325,16.25,-5.0142,6.5937,-16.2573,-0.24543708519252264,0.43747594768143006,-1.2493792207262802,-0.004973142750478443,-0.0013382130614996157,0.0024535630176885093,0,70,255.0,255.0,255.0
326,16.3,-5.026477153231991,6.615571907275648,-16.319765349031844,-0.24563069496568662,0.43739599650250605,-1.2492238395335078,-0.002771248176080756,-0.0018598340954607624,0.003761684693206765,0,70,255.0,255.0,255.0
327,16.35,-5.038761234584423,6.637439164966057,-16.382221293851956,-0.24571421001013072,0.437289964271884,-1.2490030522569595,-0.0005693536016830687,-0.002381455129421909,0.005069806368725021,0,70,255.0,255.0,255.0
328,16.400000000000002,-5.05104673932086,6.659300469018643,-16.44466456415615,-0.24568763032585492,0.4371578509895639,-1.2487168588966353,0.001632540972714618,-0.0029030761633830563,0.006377928044243275,0,70,255.0,255.0,255.0
329,16.45,-5.063328162704863,6.6811545153808165,-16.507091889640222,-0.24555095591285928,0.43699965665554563,-1.2483652594525352,0.0038344355471121496,-0.0034246971973441657,0.0076860497197614374,0,70,255.0,255.0,255.0
330,16.5,-5.0756,6.703,-16.5695,-0.2453041867711437,0.4368153812698295,-1.247948253924659,0.006036330121509836,-0.00394631823130398,0.008994171395285022,0,70,255.0,255.0,255.0
331,16.55,-5.087858164634893,6.724835991982721,-16.631886122016994,-0.24503241280435378,0.4366274143793542,-1.247495667454864,0.004834628550086722,-0.0035723573877079087,0.009109287396509205,0,70,255.0,255.0,255.0
332,16.6,-5.100104242698412,6.7466630530719724,-16.69424947081549,-0.24482072391613502,0.43645814553105866,-1.247037325185008,0.003632926978663608,-0.0031983965441118372,0.009224403397733385,0,70,255.0,255.0,255.0
333,16.650000000000002,-5.112341238444483,6.768482118169864,-16.756589758605493,-0.24466912010648742,0.43630757472494297,-1.2465732271150907,0.0024312254072404935,-0.0028244357005157658,0.009339519398957568,0,70,255.0,255.0,255.0
334,16.7,-5.124572156127035,6.790294122178502,-16.818906697596994,-0.24457760137541099,0.43617570196100713,-1.2461033732451123,0.0012295238358174644,-0.0024504748569197207,0.009454635400181741,0,70,255.0,255.0,255.0
335,16.75,-5.1368,6.8121,-16.8812,-0.2445461677229057,0.4360625272392511,-1.2456277635750728,2.7822264394794516e-05,-0.002076514013321429,0.009569751401411253,0,70,255.0,255.0,255.0
336,16.8,-5.149026988228435,6.8339001247934705,-16.9434685629002,-0.24452765381690306,0.4359343459800748,-1.2450974906470147,0.0007127339757107984,-0.0030507363537296468,0.0116411657209149,0,70,255.0,255.0,255.0
337,16.85,-5.161252194621931,6.855692622746058,-17.005708022886107,-0.2444748943253346,0.43575745360387813,-1.2444636470029813,0.0013976456870268023,-0.004024958694137865,0.013712580040418546,0,70,255.0,255.0,255.0
338,16.900000000000002,-5.17347390690121,6.8774750583019095,-17.067913201421906,-0.24438788924820037,0.43553185011066103,-1.2437262326429728,0.0020825573983428063,-0.004999181034546082,0.015783994359922192,0,70,255.0,255.0,255.0
339,16.95,-5.185690412786991,6.899244995905173,-17.130078919971798,-0.24426663858550032,0.43525753550042356,-1.242885247566989,0.0027674691096587615,-0.005973403374954231,0.017855408679425692,0,70,255.0,255.0,255.0
340,17.0,-5.1979,6.921,-17.1922,-0.2441111423372345,0.43493450977316556,-1.24194069177503,0.0034523808209752094,-0.006947625715365557,0.01992682299893822,0,70,255.0,255.0,255.0
341,17.05,-5.210101082451366,6.942737908843397,-17.254272426382204,-0.2439289719280323,0.4345792017003476,-1.2409623699570629,0.0038344355471122745,-0.007264697197352903,0.019206049719739215,0,70,255.0,255.0,255.0
342,17.1,-5.222292578813864,6.964457655943801,-17.316296837640106,-0.24372769878252326,0.4342080400534303,-1.240020086803056,0.00421649027324934,-0.007581768679340248,0.01848527644054021,0,70,255.0,255.0,255.0
343,17.150000000000002,-5.2344735339506805,6.986158448622506,-17.37827503570691,-0.24350732290070737,0.4338210248324136,-1.2391138423130088,0.004598544999386406,-0.007898840161327594,0.01776450316134121,0,70,255.0,255.0,255.0
344,17.2,-5.246642992724998,7.007839494200806,-17.440208822515803,-0.24326784428258463,0.4334181560372975,-1.238243636486922,0.004980599725523444,-0.008215911643314916,0.017043729882142256,0,70,255.0,255.0,255.0
345,17.25,-5.2588,7.0295,-17.5021,-0.24300926292815503,0.4329994336680821,-1.2374094693247948,0.005362654451660509,-0.00853298312530315,0.01632295660295746,0,70,255.0,255.0,255.0
346,17.3,-5.2709438819661,7.051139439832943,-17.563948931570987,-0.2427484584709683,0.43258084721852685,-1.2365250295247168,0.005069523835808583,-0.008210474856904865,0.01905463540016438,0,70,255.0,255.0,255.0
347,17.35,-5.28307509012261,7.0727583534787435,-17.62575022655348,-0.24250231054457416,0.43217838618239157,-1.2355040057847781,0.0047763932199566565,-0.00788796658850658,0.021786314197371304,0,70,255.0,255.0,255.0
348,17.400000000000002,-5.2951943572960705,7.094357547208072,-17.687497055750466,-0.24227081914897264,0.4317920505596762,-1.2343463981049796,0.004483262604104731,-0.0075654583201082955,0.024517992994578224,0,70,255.0,255.0,255.0
349,17.45,-5.3073024163130205,7.1159378272916,-17.749182589964974,-0.2420539842841637,0.4314218403503808,-1.2330522064853204,0.004190131988252825,-0.0072429500517100336,0.027249671791784953,0,70,255.0,255.0,255.0
350,17.5,-5.3194,7.1375,-17.8108,-0.24185180595014732,0.43106775555450516,-1.231621430925801,0.003897001372400677,-0.006920441783313969,0.029981350588997202,0,70,255.0,255.0,255.0
351,17.55,-5.331487389684234,7.159044331824833,-17.872343847333852,-0.24163719418809554,0.4306974094255485,-1.2301375119440892,0.004687469109671316,-0.007893403374951738,0.02937540867946992,0,70,255.0,255.0,255.0
352,17.6,-5.343563060695695,7.180568930141229,-17.933814256146004,-0.2413830590391802,0.43027841521701,-1.228683890057854,0.005477936846941956,-0.008866364966589508,0.028769466769942634,0,70,255.0,255.0,255.0
353,17.650000000000002,-5.355625036865039,7.202071362545208,-17.99521274129123,-0.2410894005034013,0.4298107729288896,-1.227260565267095,0.006268404584212595,-0.009839326558227276,0.028163524860415352,0,70,255.0,255.0,255.0
354,17.7,-5.367671342022921,7.223549196632791,-18.056540817624303,-0.24075621858075893,0.42929448256118724,-1.2258675375718124,0.007058872321483178,-0.010812288149864976,0.027557582950888112,0,70,255.0,255.0,255.0
355,17.75,-5.3797,7.245,-18.1178,-0.240383513271253,0.4287295441139031,-1.2245048069720061,0.007849340058752485,-0.011785249741504078,0.02695164104136083,0,70,255.0,255.0,255.0
356,17.8,-5.391709759296962,7.2664216328677265,-18.178990879093615,-0.24001476477664666,0.428133515079282,-1.2231169226989174,0.00690059972550142,-0.012055911643340793,0.02856372988218825,0,70,255.0,255.0,255.0
357,17.85,-5.403702267094609,7.287813125956344,-18.240110348862526,-0.23969345329870287,0.427523952949569,-1.2216484339837872,0.005951859392250353,-0.012326573545177508,0.030175818723015668,0,70,255.0,255.0,255.0
358,17.900000000000002,-5.415679895243777,7.3091738026111,-18.301154379084632,-0.23941957883742163,0.4269008577247642,-1.2200993408266156,0.0050031190589992875,-0.01259723544701422,0.03178790756384309,0,70,255.0,255.0,255.0
359,17.95,-5.427645015595295,7.330502986177235,-18.362118939537815,-0.23919314139280293,0.42626422940486763,-1.2184696432274031,0.004054378725748289,-0.012867897348850917,0.033399996404670396,0,70,255.0,255.0,255.0
360,18.0,-5.4396,7.3518,-18.423,-0.23901414096484683,0.42561406798987916,-1.2167593411861488,0.003105638392497445,-0.013138559250687631,0.03501208524549426,0,70,255.0,255.0,255.0
361,18.05,-5.451546373127921,7.373064336704264,-18.483794236291686,-0.2388317467053276,0.4249605302573195,-1.2150107972602189,0.004190131988270422,-0.013002950051697491,0.03492967179170065,0,70,255.0,255.0,255.0
362,18.1,-5.46348227092587,7.394296166033398,-18.544501148403903,-0.2385951277660198,0.4243137729847094,-1.213266374006979,0.005274625584043399,-0.01286734085270735,0.03484725833790705,0,70,255.0,255.0,255.0
363,18.150000000000002,-5.475404982159859,7.415495827010401,-18.605120942370263,-0.23830428414692328,0.42367379617204876,-1.2115260714264282,0.006359119179816377,-0.01273173165371721,0.03476484488411344,0,70,255.0,255.0,255.0
364,18.2,-5.487311795595899,7.436663658658269,-18.66565382422442,-0.23795921584803817,0.4230405998193377,-1.2097898895185675,0.0074436127755892765,-0.012596122454727078,0.03468243143031984,0,70,255.0,255.0,255.0
365,18.25,-5.4992,7.4578,-18.7261,-0.23755992286936434,0.42241418392657615,-1.2080578282833963,0.008528106371363364,-0.012460513255736494,0.03460001797652623,0,70,255.0,255.0,255.0
366,18.3,-5.5110671481913585,7.47890502031522,-18.786458575739626,-0.23712224840204288,0.4217843638914362,-1.2062638882602115,0.008978872321495508,-0.012732288149860875,0.03715758295086648,0,70,255.0,255.0,255.0
367,18.35,-5.522911849201913,7.499978209910066,-18.846724257521874,-0.23666203563721477,0.42114095511159005,-1.2043420699883096,0.009429638271627652,-0.013004063043985256,0.03971514792520672,0,70,255.0,255.0,255.0
368,18.400000000000002,-5.534732976116788,7.5210188893473005,-18.906890651434313,-0.23617928457488008,0.42048395758703766,-1.2022923734676907,0.009880404221759795,-0.013275837938109637,0.04227271289954697,0,70,255.0,255.0,255.0
369,18.45,-5.5465294020211084,7.54202637918969,-18.966951363564498,-0.23567399521503882,0.41981337131777907,-1.200114798698355,0.010331170171891906,-0.013547612832233998,0.044830277873887034,0,70,255.0,255.0,255.0
370,18.5,-5.5583,7.563,-19.0269,-0.2351461675576909,0.41912919630381423,-1.197809345680302,0.010781936122024938,-0.013819387726357935,0.04738784284822728,0,70,255.0,255.0,255.0
371,18.55,-5.570044234106647,7.583938782034857,-19.086731460749807,-0.2346312596864969,0.41841401417693413,-1.195453649698977,0.009814378725734926,-0.014787897348846104,0.04683999640477409,0,70,255.0,255.0,255.0
372,18.6,-5.5817639322664805,7.604840594326341,-19.146445821508603,-0.2341647296851174,0.4176504065689296,-1.1931253460398246,0.008846821329444915,-0.015756406971334274,0.0462921499613209,0,70,255.0,255.0,255.0
373,18.650000000000002,-5.593461513372989,7.625703015600398,-19.206044451892495,-0.23374657755355238,0.4168383734798007,-1.1908244347028447,0.007879263933154905,-0.016724916593822445,0.045744303517867714,0,70,255.0,255.0,255.0
374,18.7,-5.605139396319666,7.646523624582968,-19.26552872151759,-0.23337680329180194,0.4159779149095474,-1.188550915688038,0.0069117065368649614,-0.017693426216310544,0.04519645707441456,0,70,255.0,255.0,255.0
375,18.75,-5.6168,7.6673,-19.3249,-0.23305540689986592,0.41506903085816965,-1.1863047889954033,0.005944149140575838,-0.018661935838799604,0.0446486106309667,0,70,255.0,255.0,255.0
376,18.8,-5.628444715382052,7.688030251545354,-19.384158781261146,-0.2327207128519622,0.4141435794008314,-1.1840335129438717,0.007443612775573015,-0.0183561224547307,0.04620243143029408,0,70,255.0,255.0,255.0
377,18.85,-5.6400708217321665,7.70871461278457,-19.443302056443724,-0.23231104562230862,0.4132334186126966,-1.181684545852374,0.008943076410570192,-0.0180503090706618,0.04775625222962145,0,70,255.0,255.0,255.0
378,18.900000000000002,-5.651674570391255,7.729353848251111,-19.50232594099572,-0.23182640521090517,0.41233854849376517,-1.1792578877209094,0.01044254004556737,-0.017744495686592896,0.04931007302894883,0,70,255.0,255.0,255.0
379,18.95,-5.663252212700228,7.749948722478433,-19.561226550365145,-0.2312667916177519,0.4114589690440373,-1.1767535385494792,0.011942003680564441,-0.017438682302524017,0.050863893828276094,0,70,255.0,255.0,255.0
380,19.0,-5.6748,7.7705,-19.62,-0.23063220484284874,0.4105946802635128,-1.1741714983380822,0.01344146731556295,-0.017132868918454225,0.0524177146276017,0,70,255.0,255.0,255.0
381,19.05,-5.6863153043651415,7.791008211783731,-19.678643014205605,-0.22998988890566202,0.4097316682197454,-1.1715482985255454,0.012251170171905185,-0.017387612832241665,0.052510277873868465,0,70,255.0,255.0,255.0
382,19.1,-5.697799980804854,7.811472954535381,-19.737154752716517,-0.22940708782565822,0.4088559189802886,-1.1689204705506953,0.011060873028247419,-0.017642356746029104,0.052602841120135226,0,70,255.0,255.0,255.0
383,19.150000000000002,-5.709257005061994,7.831893591395166,-19.795534984124636,-0.22888380160283728,0.4079674325451425,-1.166288014413532,0.009870575884589654,-0.017897100659816544,0.05269540436640199,0,70,255.0,255.0,255.0
384,19.200000000000003,-5.720689352879424,7.8522694855033,-19.85378347702183,-0.22842003023719923,0.40706620891430695,-1.163650930114055,0.008680278740931888,-0.018151844573603984,0.052787967612668754,0,70,255.0,255.0,255.0
385,19.25,-5.7321,7.8726,-19.9119,-0.2280157737287441,0.4061522480877821,-1.1610092176522653,0.007489981597275541,-0.01840658848739052,0.052880530858930186,0,70,255.0,255.0,255.0
386,19.3,-5.743490867157383,7.892884101319726,-19.96988356191645,-0.22760773152539024,0.40520174772018924,-1.1583172929539303,0.008831706536878167,-0.019613426216323334,0.05479645707446291,0,70,255.0,255.0,255.0
387,19.35,-5.754859655048423,7.913119169073912,-20.027730132690213,-0.22713260307505626,0.4041909054661498,-1.1555295719448189,0.010173431476480792,-0.020820263945256146,0.05671238328999562,0,70,255.0,255.0,255.0
388,19.400000000000002,-5.766203009360772,7.933302186168235,-20.08543492250575,-0.22659038837774215,0.4031197213256636,-1.1526460546249309,0.011515156416083418,-0.022027101674188962,0.058628309505528345,0,70,255.0,255.0,255.0
389,19.450000000000003,-5.77751757578208,7.9534301355083725,-20.14299314154753,-0.2259810874334479,0.4019881952987308,-1.149666740994266,0.012856881355686044,-0.023233939403121774,0.06054423572106107,0,70,255.0,255.0,255.0
390,19.5,-5.7888,7.9735,-20.2004,-0.22530470024217356,0.4007963273853514,-1.146591631052825,0.014198606295288352,-0.024440777132055835,0.062460161936591874,0,70,255.0,255.0,255.0
391,19.55,-5.8000476270053305,7.993509782937365,-20.2576515381286,-0.22460318499277732,0.3996053408994877,-1.1434705296587058,0.013862003680560026,-0.023198682302493605,0.0623838938281807,0,70,255.0,255.0,255.0
392,19.6,-5.811260599001457,8.013461569168975,-20.31474711652263,-0.22391849987411752,0.39847645915510205,-1.1403532416700068,0.0135254010658317,-0.021956587472931374,0.06230762571976953,0,70,255.0,255.0,255.0
393,19.650000000000002,-5.82243975749492,8.0333584639319,-20.371686925852355,-0.22325064488619414,0.3974096821521945,-1.1372397670867287,0.013188798451103375,-0.020714492643369144,0.06223135761135836,0,70,255.0,255.0,255.0
394,19.700000000000003,-5.833585943992255,8.05320357246322,-20.428471156788056,-0.22259962002900718,0.3964050098907651,-1.1341301059088709,0.01285219583637505,-0.019472397813806913,0.06215508950294719,0,70,255.0,255.0,255.0
395,19.75,-5.8447,8.073,-20.4851,-0.22196542530255664,0.39546244237081385,-1.1310242581364343,0.01251559322164697,-0.018230302984244773,0.06207882139453069,0,70,255.0,255.0,255.0
396,19.8,-5.855782624821301,8.092749566930816,-20.541572685569154,-0.22133952850349237,0.3945048886818678,-1.1278645884112533,0.01252027874092354,-0.0200718445735989,0.06430796761270624,0,70,255.0,255.0,255.0
397,19.85,-5.86683394894575,8.112448954250196,-20.597884601219278,-0.22071339742846427,0.3934552579134539,-1.1245934613751636,0.012524964260200111,-0.021913386162953026,0.06653711383088179,0,70,255.0,255.0,255.0
398,19.900000000000002,-5.877853960659548,8.132093558104172,-20.654030174084827,-0.22008703207747235,0.39231355006557245,-1.121210877028165,0.012529649779476681,-0.023754927752307156,0.06876626004905734,0,70,255.0,255.0,255.0
399,19.950000000000003,-5.888842648248898,8.151678774638762,-20.71000383130025,-0.21946043245051658,0.3910797651382232,-1.1177168353702578,0.012534335298753252,-0.02559646934166128,0.07099540626723289,0,70,255.0,255.0,255.0
400,20.0,-5.8998,8.1712,-20.7658,-0.218833598547597,0.38975390313140634,-1.1141113364014419,0.012539020818030489,-0.027438010931017054,0.07322455248540471,0,70,255.0,255.0,255.0
401,20.05,-5.910725873709467,8.190653549339379,-20.821414519594782,-0.2181987009932545,0.3883911043730513,-1.110479116696281,0.012856881355669052,-0.027073939403182475,0.07206423572103196,0,70,255.0,255.0,255.0
402,20.1,-5.921619605215544,8.210039413830245,-20.876848878600267,-0.2175479104120301,0.3870465091910881,-1.1069049128293387,0.013174741893307616,-0.026709867875347893,0.0709039189566592,0,70,255.0,255.0,255.0
403,20.150000000000002,-5.932480399866889,8.229358503651426,-20.932105977808355,-0.21688122680392372,0.3857201175855165,-1.103388724800615,0.01349260243094618,-0.026345796347513314,0.06974360219228645,0,70,255.0,255.0,255.0
404,20.200000000000003,-5.9433074630121565,8.24861172898174,-20.987188718010966,-0.21619865016893547,0.3844119295563367,-1.0999305526101097,0.013810462968584743,-0.025981724819678732,0.0685832854279137,0,70,255.0,255.0,255.0
405,20.25,-5.9541,8.2678,-21.0421,-0.21550018050706526,0.3831219451035487,-1.096530396257824,0.014128323506224838,-0.025617653291845066,0.06742296866353215,0,70,255.0,255.0,255.0
406,20.3,-5.964857080340834,8.286924235711679,-21.096841236051713,-0.2147776675234995,0.3818506938259086,-1.0930989448036608,0.014772195836405287,-0.02523239781375945,0.06983508950299257,0,70,255.0,255.0,255.0
407,20.35,-5.9755772301920755,8.305985390428823,-21.15140788437967,-0.2140229609234247,0.3805987053221727,-1.0895468873075245,0.015416068166585735,-0.02484714233567383,0.07224721034245299,0,70,255.0,255.0,255.0
408,20.400000000000002,-5.986258839872902,8.324984427290127,-21.20579391468177,-0.2132360607068409,0.37936597959234114,-1.0858742237694152,0.016059940496766185,-0.024461886857588218,0.07465933118191341,0,70,255.0,255.0,255.0
409,20.450000000000003,-5.996900299702484,8.343922309434289,-21.25999329665591,-0.21241696687374806,0.37815251663641386,-1.082080954189333,0.01670381282694663,-0.0240766313795026,0.07707145202137383,0,70,255.0,255.0,255.0
410,20.5,-6.0075,8.3628,-21.314,-0.21156567942414628,0.376958316454391,-1.0781670785672783,0.01734768515712659,-0.023691375901416567,0.07948357286082874,0,70,255.0,255.0,255.0
411,20.55,-6.018057004927202,8.38161750781391,-21.367808536198368,-0.21072262891274907,0.37572612032331487,-1.0741651040890756,0.016374335298761252,-0.02559646934162772,0.0805954062672779,0,70,255.0,255.0,255.0
412,20.6,-6.028573074016157,8.400371024454465,-21.42141558388107,-0.20992824589427012,0.3743986695202282,-1.0701075379405505,0.015400985440395915,-0.02750156278183887,0.08170723967372705,0,70,255.0,255.0,255.0
413,20.650000000000002,-6.039050640641512,8.419055787188066,-21.474818363464586,-0.20918253036870946,0.37297596404513095,-1.065994380121703,0.014427635582030576,-0.029406656222050024,0.0828190730801762,0,70,255.0,255.0,255.0
414,20.700000000000003,-6.049492138177911,8.437667033281112,-21.528014095365403,-0.20848548233606706,0.37145800389802314,-1.0618256306325327,0.013454285723665239,-0.031311749662261176,0.08393090648662535,0,70,255.0,255.0,255.0
415,20.75,-6.0599,8.4562,-21.581,-0.207837101796343,0.3698447890789049,-1.0576012894730404,0.012480935865299303,-0.03321684310247219,0.08504273989308153,0,70,255.0,255.0,255.0
416,20.8,-6.070275699950359,8.474651333032686,-21.63377421915481,-0.2071798168254963,0.36822082488084973,-1.053376638840018,0.013810462968568402,-0.03174172481973397,0.08394328542780903,0,70,255.0,255.0,255.0
417,20.85,-6.080616873743297,8.493023311753323,-21.68633858009606,-0.20645605549948615,0.36667061659693145,-1.0492069609302594,0.0151399900718375,-0.030266606536995734,0.08284383096253653,0,70,255.0,255.0,255.0
418,20.900000000000002,-6.090920197561055,8.511319623957615,-21.738695831459893,-0.20566581781831253,0.3651941642271501,-1.0450922557437643,0.0164695171751066,-0.028791488254257508,0.08174437649726403,0,70,255.0,255.0,255.0
419,20.950000000000003,-6.101182347585875,8.529543957441271,-21.790848721882494,-0.20480910378197545,0.36379146777150567,-1.0410325232805329,0.017799044278375697,-0.02731636997151928,0.08064492203199153,0,70,255.0,255.0,255.0
420,21.0,-6.1114,8.5477,-21.8428,-0.20388591339047502,0.3624625272299982,-1.0370277635405654,0.019128571381644033,-0.02584125168878293,0.0795454675667191,0,70,255.0,255.0,255.0
421,21.05,-6.12157059527136,8.565789960055353,-21.894550587182383,-0.20294210378526079,0.36111858015329046,-1.0329683405508616,0.018623812826924883,-0.027916631379528073,0.0828314520214239,0,70,255.0,255.0,255.0
422,21.1,-6.131694631010655,8.583810128532255,-21.946094095734708,-0.20202353210778248,0.35967086409204535,-1.028744618338423,0.018119054272205733,-0.02999201107027322,0.08611743647612871,0,70,255.0,255.0,255.0
423,21.150000000000002,-6.141773369114269,8.60175531698148,-21.997422310695846,-0.20113019835804016,0.35811937904626306,-1.0243565969032487,0.017614295717486583,-0.03206739076101837,0.08940342093083352,0,70,255.0,255.0,255.0
424,21.200000000000003,-6.151808071478587,8.619620336953805,-22.048527017104657,-0.20026210253603383,0.3564641250159435,-1.0198042762453392,0.017109537162767433,-0.03414277045176351,0.09268940538553833,0,70,255.0,255.0,255.0
425,21.25,-6.1618,8.6374,-22.0994,-0.19941924464176347,0.3547051020010868,-1.015087656364695,0.016604778608048765,-0.03621815014250851,0.09597538984024823,0,70,255.0,255.0,255.0
426,21.3,-6.171749918964197,8.65509042674591,-22.150034632115666,-0.19857176803346996,0.35292085450596866,-1.0103019989565236,0.01729428572369037,-0.035151749662217645,0.09545090648660234,0,70,255.0,255.0,255.0
427,21.35,-6.181656602214084,8.672692974117664,-22.200430636965116,-0.19768981606939443,0.35118992703486496,-1.0055425657160344,0.017983792839331977,-0.03408534918192677,0.09492642313295646,0,70,255.0,255.0,255.0
428,21.400000000000002,-6.191518325981875,8.690210308116463,-22.25058932575673,-0.19677338874953676,0.3495123195877759,-1.0008093566432277,0.018673299954973584,-0.03301894870163591,0.09440193977931058,0,70,255.0,255.0,255.0
429,21.450000000000003,-6.201333366499775,8.707645094743508,-22.3005120096989,-0.19582248607389705,0.3478880321647013,-0.9961023717381033,0.01936280707061519,-0.03195254822134504,0.09387745642566468,0,70,255.0,255.0,255.0
430,21.5,-6.2111,8.725,-22.3502,-0.1948371080424753,0.3463170647656415,-0.9914216110006615,0.02005231418625608,-0.030886147741053804,0.09335297307202417,0,70,255.0,255.0,255.0
431,21.55,-6.220816928871853,8.742277132961009,-22.39965408435496,-0.1938428240808592,0.34476600182282824,-0.9867356636230601,0.01971904427838757,-0.03115636997147711,0.09408492203202955,0,70,255.0,255.0,255.0
432,21.6,-6.23048456013301,8.759476374997092,-22.44887295640484,-0.19286520361463652,0.3432014277684937,-0.9820131187974585,0.01938577437051906,-0.031426592201900416,0.09481687099203492,0,70,255.0,255.0,255.0
433,21.650000000000002,-6.24010372695824,8.776597050552668,-22.49785478627724,-0.19190424664380729,0.34162334260263816,-0.9772539765238564,0.01905250446265055,-0.031696814432323715,0.0955488199520403,0,70,255.0,255.0,255.0
434,21.700000000000003,-6.249675262522313,8.793638484072163,-22.546597744099763,-0.19095995316837144,0.3400317463252613,-0.9724582368022542,0.01871923455478204,-0.03196703666274702,0.09628076891204569,0,70,255.0,255.0,255.0
435,21.75,-6.2592,8.8106,-22.5951,-0.19003232318832908,0.33842663893636354,-0.9676258996326521,0.018385964646914665,-0.032237258893168974,0.09701271787205279,0,70,255.0,255.0,255.0
436,21.8,-6.268678365548393,8.827480241410054,-22.643359430464496,-0.18909693564308755,0.3367671382027385,-0.9627393465512125,0.019029537162746565,-0.03414277045183146,0.09844940538552757,0,70,255.0,255.0,255.0
437,21.85,-6.278109157253879,8.844275125893976,-22.691372737415527,-0.1881293694720544,0.33501236189118033,-0.9577809590940992,0.019673109678578465,-0.03604828201049393,0.09988609289900237,0,70,255.0,255.0,255.0
438,21.900000000000002,-6.287490766185169,8.860979889672873,-22.739136329134315,-0.18712962467522964,0.3331623100016891,-0.9527507372613121,0.02031668219441037,-0.037953793569156416,0.10132278041247715,0,70,255.0,255.0,255.0
439,21.950000000000003,-6.296821583410972,8.877589768967846,-22.786646613902064,-0.18609770125261332,0.3312169825342647,-0.9476486810528514,0.02096025471024227,-0.0398593051278189,0.10275946792595193,0,70,255.0,255.0,255.0
440,22.0,-6.3061,8.8941,-22.8339,-0.1850335992042055,0.32917637948890727,-0.9424747904687171,0.021603827226074346,-0.04176481668647947,0.10419615543942573,0,70,255.0,255.0,255.0
441,22.05,-6.315324808934576,8.910507501398781,-22.880892993787057,-0.18396143334678836,0.3271414453662112,-0.9372349501720905,0.021282807070610272,-0.03963254822136039,0.10539745642563877,0,70,255.0,255.0,255.0
442,22.1,-6.324496410851475,8.926815921427009,-22.927622493933058,-0.18290531849714445,0.3252131246667712,-0.931935044826153,0.020961786915146198,-0.03750027975624131,0.10659875741185182,0,70,255.0,255.0,255.0
443,22.150000000000002,-6.333615608301087,8.943030590755848,-22.97408549718552,-0.18186525465527373,0.3233914173905871,-0.926575074430905,0.020640766759682124,-0.035368011291122235,0.10780005839806486,0,70,255.0,255.0,255.0
444,22.200000000000003,-6.342683203833799,8.959156840056457,-23.020279000291993,-0.18084124182117622,0.3216763235376589,-0.9211550389863464,0.02031974660421805,-0.03323574282600315,0.10900135938427791,0,70,255.0,255.0,255.0
445,22.25,-6.3517,8.9752,-23.0662,-0.179833279994852,0.3200678431079868,-0.9156749384924775,0.019998726448754223,-0.03110347436088423,0.1102026603704962,0,70,255.0,255.0,255.0
446,22.3,-6.360666398713305,8.991163352994823,-23.111846194387265,-0.17881733096976324,0.3184430803323978,-0.9101768527604129,0.020639234554795403,-0.03388703666267391,0.10972076891208554,0,70,255.0,255.0,255.0
447,22.35,-6.369581199340222,9.007041988397987,-23.157218086852257,-0.17776935653937243,0.3166791394417194,-0.9047028616012688,0.021279742660836584,-0.0366705989644636,0.1092388774536749,0,70,255.0,255.0,255.0
448,22.400000000000002,-6.378442800610488,9.022828947303744,-23.20231688212361,-0.17668935670367955,0.31477602043595143,-0.8992529650150453,0.021920250766877765,-0.039454161266253285,0.10875698599526425,0,70,255.0,255.0,255.0
449,22.450000000000003,-6.387249601253835,9.038517270806333,-23.24714378492998,-0.17557733146268462,0.312733723315094,-0.8938271630017423,0.022560758872918942,-0.042237723568042965,0.10827509453685359,0,70,255.0,255.0,255.0
450,22.5,-6.396,9.0541,-23.2917,-0.1744332808163877,0.3105522480791472,-0.88842545556136,0.02320126697896141,-0.04502128586983334,0.10779320307844742,0,70,255.0,255.0,255.0
451,22.55,-6.404692796212207,9.06957188662193,-23.335985428663868,-0.1732812427741577,0.3083342333042053,-0.8829696387862521,0.022880254710238197,-0.04369930512784357,0.11043946792586613,0,70,255.0,255.0,255.0
452,22.6,-6.4133283917876405,9.084934524981039,-23.37999475865792,-0.17214525534536387,0.30618231756636277,-0.8773815087687732,0.022559242441514984,-0.04237732438585381,0.11308573277328485,0,70,255.0,255.0,255.0
453,22.650000000000002,-6.421907589256969,9.100191220029185,-23.423721374320042,-0.17102531853000616,0.30409650086561985,-0.8716610655089235,0.02223823017279177,-0.04105534364386404,0.11573199762070356,0,70,255.0,255.0,255.0
454,22.700000000000003,-6.4304311911508645,9.11534527671822,-23.467158659988108,-0.16992143232808463,0.30207678320197634,-0.8658083090067027,0.02191721790406856,-0.03973336290187427,0.11837826246812228,0,70,255.0,255.0,255.0
455,22.75,-6.4389,9.1304,-23.5103,-0.16883359673959936,0.3001231645754324,-0.8598232392621116,0.02159620563534581,-0.03841138215988682,0.12102452731554525,0,70,255.0,255.0,255.0
456,22.8,-6.447314416437866,9.145357900517462,-23.553140090957267,-0.16773769793361035,0.2981879864507846,-0.8537845920946131,0.022239746604213472,-0.038995742826024415,0.12052135938439096,0,70,255.0,255.0,255.0
457,22.85,-6.455673233509221,9.160218311677857,-23.595678878516072,-0.16660962207917798,0.2962235902928299,-0.8477711033236722,0.02288328757308113,-0.039580103492162004,0.12001819145323668,0,70,255.0,255.0,255.0
458,22.900000000000002,-6.463974842361643,9.174979772579523,-23.637917620596244,-0.1654493691763022,0.2942299761015683,-0.8417827729492893,0.02352682854194879,-0.0401644641582996,0.11951502352208239,0,70,255.0,255.0,255.0
459,22.950000000000003,-6.4722176341427105,9.189640822320793,-23.679857575117612,-0.16425693922498308,0.29220714387699986,-0.8358196009714639,0.02417036951081645,-0.04074882482443719,0.1190118555909281,0,70,255.0,255.0,255.0
460,23.0,-6.4804,9.2042,-23.7215,-0.16303233222522062,0.29015509361912467,-0.8298815873901966,0.02481391047968451,-0.041333185490576074,0.11850868765978184,0,70,255.0,255.0,255.0
461,23.05,-6.488520738036332,9.218655711308228,-23.76284540750707,-0.1617999654914052,0.2880658208926592,-0.8239239928352812,0.024480758872932103,-0.042237723568043,0.11979509453683088,0,70,255.0,255.0,255.0
462,23.1,-6.49658027417548,9.233005828307535,-23.803891327277796,-0.16058425633792736,0.2859313212623203,-0.8179020779365133,0.024147607266179694,-0.04314226164550992,0.12108150141387991,0,70,255.0,255.0,255.0
463,23.150000000000002,-6.504579441296463,9.247248089652729,-23.84463454329499,-0.15938520476478718,0.2837515947281081,-0.8118158426938931,0.02381445565942729,-0.04404679972297684,0.12236790829092895,0,70,255.0,255.0,255.0
464,23.200000000000003,-6.512519072278298,9.261380233998617,-23.885071839541457,-0.15820281077198461,0.2815266412900226,-0.8056652871074202,0.023481304052674883,-0.04495133780044377,0.12365431516797798,0,70,255.0,255.0,255.0
465,23.25,-6.5204,9.2754,-23.9252,-0.15703707435951977,0.27925646094806383,-0.7994504111770955,0.02314815244592272,-0.04585587587791151,0.12494072204502871,0,70,255.0,255.0,255.0
466,23.3,-6.528222631416812,9.28930565424963,-23.965015879014455,-0.15586244010077008,0.2769727299785694,-0.793175436564267,0.02383721790406442,-0.045493362901862164,0.12605826246810461,0,70,255.0,255.0,255.0
467,23.35,-6.535985669788863,9.303097575092004,-24.004516612372743,-0.15465335256911328,0.27470712465787755,-0.7868445849302849,0.024526283362206122,-0.04513084992581281,0.1271758028911805,0,70,255.0,255.0,255.0
468,23.400000000000002,-6.543687392452509,9.316776668809563,-24.0436994062238,-0.15340981176454943,0.2724596449859881,-0.7804578562751489,0.025215348820347823,-0.04476833694976346,0.1282933433142564,0,70,255.0,255.0,255.0
469,23.450000000000003,-6.551326076744103,9.33034384168475,-24.08256146671657,-0.15213181768707848,0.2702302909629012,-0.774015250598859,0.025904414278489524,-0.04440582397371411,0.12941088373733228,0,70,255.0,255.0,255.0
470,23.5,-6.5589,9.3438,-24.1211,-0.1508193703367005,0.26801906258861674,-0.7675167679014159,0.026593479736632286,-0.04404331099766434,0.13052842416040988,0,70,255.0,255.0,255.0
471,23.55,-6.566407936296425,9.357145671693257,-24.15931267643511,-0.14950227410551395,0.2658032591930644,-0.7609902609076329,0.02609036951082943,-0.04458882482442839,0.13053185559090535,0,70,255.0,255.0,255.0
472,23.6,-6.573850646669074,9.370379871324452,-24.19719902323124,-0.14821033338561754,0.2635601801061738,-0.7544635823423251,0.025587259285026573,-0.04513433865119244,0.13053528702140085,0,70,255.0,255.0,255.0
473,23.650000000000002,-6.581229388893509,9.383501235109017,-24.234759031809816,-0.14694354817701127,0.2612898253279451,-0.7479367322054927,0.025084149059223716,-0.045679852477956494,0.13053871845189632,0,70,255.0,255.0,255.0
474,23.700000000000003,-6.588545420745296,9.396508399262391,-24.27199269359226,-0.14570191847969513,0.25899219485837816,-0.7414097104971353,0.02458103883342086,-0.046225366304720544,0.13054214988239182,0,70,255.0,255.0,255.0
475,23.75,-6.5958,9.4094,-24.3089,-0.14448544429366922,0.25666728869747313,-0.7348825172172538,0.024077928607618038,-0.04677088013148456,0.1305455813128864,0,70,255.0,255.0,255.0
476,23.8,-6.602993623397489,9.422174858977348,-24.345479815245117,-0.14324846347716244,0.25432623324917414,-0.728287519805231,0.025401304052653124,-0.04687133780047379,0.13325431516802433,0,70,255.0,255.0,255.0
477,23.85,-6.610123743534846,9.434832539610195,-24.381726494702313,-0.14194531388840387,0.25198015491742565,-0.7215570857004512,0.02672467949768821,-0.04697179546946302,0.13596304902316225,0,70,255.0,255.0,255.0
478,23.900000000000002,-6.617187051973458,9.447372790754367,-24.417633266536953,-0.14057599552739358,0.24962905370222777,-0.7146912149029145,0.0280480549427233,-0.04707225313845225,0.13867178287830015,0,70,255.0,255.0,255.0
479,23.950000000000003,-6.624180240274714,9.459795361265693,-24.453193358914397,-0.1391405083941315,0.24727292960358038,-0.707689907412621,0.02937143038775839,-0.04717271080744148,0.14138051673343807,0,70,255.0,255.0,255.0
480,24.0,-6.6311,9.4721,-24.4884,-0.13763885248861782,0.24491178262148375,-0.7005531632295711,0.030694805832792715,-0.04727316847643093,0.1440892505885758,0,70,255.0,255.0,255.0
481,24.05,-6.6379439701136205,9.484286092397355,-24.52324806258443,-0.13612787198583595,0.24252380781023117,-0.6933796598714224,0.029744414278480964,-0.0482458239736714,0.14285088373736998,0,70,255.0,255.0,255.0
482,24.1,-6.644713579191546,9.496351570234776,-24.557738997959518,-0.13466441106076968,0.24008720022411653,-0.6862680748558339,0.028794022724169217,-0.049218479470911874,0.14161251688616416,0,70,255.0,255.0,255.0
483,24.150000000000002,-6.6514112032126596,9.50829400187352,-24.59187590204239,-0.133248469713419,0.2376019598631399,-0.6792184081828057,0.02784363116985747,-0.05019113496815235,0.14037415003495834,0,70,255.0,255.0,255.0
484,24.200000000000003,-6.65803921815585,9.520110955674841,-24.625661870750175,-0.13188004794378388,0.23506808672730123,-0.6722306598523379,0.026893239615545718,-0.05116379046539282,0.13913578318375255,0,70,255.0,255.0,255.0
485,24.25,-6.6646,9.5318,-24.6591,-0.1305591457518645,0.23248558081660073,-0.6653048298644308,0.025942848061234258,-0.052136445962634115,0.13789741633254593,0,70,255.0,255.0,255.0
486,24.3,-6.671095296148029,9.543359171433234,-24.69219193441716,-0.12924804857949737,0.2298825355099163,-0.6583538407090612,0.026501038833450882,-0.05198536630474151,0.14014214988223234,0,70,255.0,255.0,255.0
487,24.35,-6.677524339698973,9.554788379450708,-24.724933513459614,-0.12790904186851937,0.22728704418612652,-0.6512906148762074,0.027059229605667506,-0.0518342866468489,0.14238688343191874,0,70,255.0,255.0,255.0
488,24.400000000000002,-6.683885735175904,9.566088001751563,-24.75731912529349,-0.12654212561893055,0.22469910684523134,-0.6441151523658692,0.02761742037788413,-0.051683206988956294,0.14463161698160515,0,70,255.0,255.0,255.0
489,24.450000000000003,-6.69017808710189,9.577258416034947,-24.78934315808491,-0.12514729983073092,0.2221187234872308,-0.6368274531780467,0.028175611150100754,-0.05153212733106369,0.14687635053129156,0,70,255.0,255.0,255.0
490,24.5,-6.6964,9.5883,-24.821,-0.12372456450392057,0.21954589411212508,-0.6294275173127403,0.028733801922317448,-0.0513810476731702,0.14912108408098046,0,70,255.0,255.0,255.0
491,24.55,-6.702550045294267,9.599213221869709,-24.852284999746935,-0.12227193369616908,0.21698605015010913,-0.6219729772923767,0.029371430387740937,-0.05101271080746605,0.14906051673355716,0,70,255.0,255.0,255.0
492,24.6,-6.708626662012562,9.609998911962398,-24.883197348202028,-0.12078742146514644,0.2144446230313784,-0.6145214656393843,0.030009058853164423,-0.0506443739417619,0.14899994938613387,0,70,255.0,255.0,255.0
493,24.650000000000002,-6.714628256083727,9.620657991120236,-24.91373719678366,-0.11927102781085261,0.21192161275593288,-0.6070729823537632,0.030646687318587912,-0.05027603707605775,0.14893938203871054,0,70,255.0,255.0,255.0
494,24.700000000000003,-6.720553233436593,9.631191380185381,-24.943904696910195,-0.1177227527332876,0.20941701932377257,-0.5996275274355131,0.0312843157840114,-0.0499077002103536,0.14887881469128725,0,70,255.0,255.0,255.0
495,24.75,-6.7264,9.6416,-24.9737,-0.11614259623245152,0.20693084273489765,-0.5921851008846346,0.03192194424943495,-0.04953936334464837,0.1488182473438684,0,70,255.0,255.0,255.0
496,24.8,-6.732167722674908,9.651883941087931,-25.00312246659512,-0.1145762166358272,0.20441326388964742,-0.5846982501214429,0.030733239615536718,-0.051163790465358905,0.15065578318379383,0,70,255.0,255.0,255.0
497,24.85,-6.737858612250778,9.662039972699699,-25.03216829373228,-0.1130692722708978,0.20181446368836167,-0.577119522566255,0.029544534981638483,-0.05278821758606944,0.15249331902371926,0,70,255.0,255.0,255.0
498,24.900000000000002,-6.7434756404891925,9.672064033767501,-25.060832887571877,-0.11162176313766331,0.1991344421310404,-0.5694489182190707,0.028355830347740245,-0.05441264470677998,0.1543308548636447,0,70,255.0,255.0,255.0
499,24.950000000000003,-6.749021779151739,9.681952063223536,-25.08911165427432,-0.11023368923612374,0.19637319921768362,-0.5616864370798903,0.02716712571384201,-0.056037071827490514,0.15616839070357014,0,70,255.0,255.0,255.0
500,25.0,-6.7545,9.6917,-25.117,-0.10890505056627917,0.1935307349482915,-0.5538320791487142,0.02597842107994408,-0.057661498948200274,0.15800592654349277,0,70,255.0,255.0,255.0
501,25.05,-6.759911864006102,9.701304613778571,-25.144493933872596,-0.1075511997605276,0.19065689429130936,-0.5459220222218453,0.02817561115011785,-0.0572921273310841,0.15839635053126475,0,70,255.0,255.0,255.0
502,25.1,-6.765253288984328,9.710765997238813,-25.171591876868863,-0.10608748945126734,0.18780152221518304,-0.5379924440955876,0.03037280122029162,-0.05692275571396793,0.15878677451903675,0,70,255.0,255.0,255.0
503,25.150000000000002,-6.770518781959503,9.72008507380977,-25.198292852928834,-0.10451391963849839,0.1849646187199125,-0.5300433447699413,0.03256999129046539,-0.05655338409685176,0.15917719850680873,0,70,255.0,255.0,255.0
504,25.200000000000003,-6.775702849956452,9.729262766920485,-25.22459588599253,-0.10283049032222076,0.18214618380549777,-0.5220747242449064,0.03476718136063916,-0.05618401247973559,0.15956762249458073,0,70,255.0,255.0,255.0
505,25.25,-6.7808,9.7383,-25.2505,-0.10103720150243456,0.17934621747193907,-0.5140865825204837,0.03696437143081299,-0.055814640862619225,0.15995804648235,0,70,255.0,255.0,255.0
506,25.3,-6.785806421300687,9.747197603797792,-25.276004197914503,-0.09923498432206372,0.17655915894511423,-0.5060776609911433,0.035124315784019595,-0.0556677002103739,0.16039881469126271,0,70,255.0,255.0,255.0
507,25.35,-6.790725031811912,9.755956038345056,-25.301107398792272,-0.09752476992403256,0.1737794474509016,-0.4980467010513572,0.0332842601372262,-0.05552075955812858,0.16083958290017542,0,70,255.0,255.0,255.0
508,25.400000000000002,-6.795560431672795,9.764575670993425,-25.325808500712796,-0.09590655830834105,0.17100708298930128,-0.48999370270112547,0.0314442044904328,-0.05537381890588326,0.16128035110908814,0,70,255.0,255.0,255.0
509,25.450000000000003,-6.800317221022452,9.77305686909453,-25.350106401755546,-0.09438034947498923,0.16824206556031318,-0.48191866594044813,0.029604148843639405,-0.05522687825363794,0.16172111931800084,0,70,255.0,255.0,255.0
510,25.5,-6.805,9.7814,-25.374,-0.09294614342397717,0.16548439516393756,-0.4738215907693258,0.027764093196846362,-0.055079937601393736,0.16216188752691307,0,70,255.0,255.0,255.0
511,25.55,-6.809612050791154,9.789604971030268,-25.3974876744694,-0.09152486295121047,0.16270646992821627,-0.4656713338135658,0.029087125713820702,-0.05603707182745629,0.16384839070348295,0,70,255.0,255.0,255.0
512,25.6,-6.814151383768023,9.797669849380965,-25.420565727962043,-0.09003743085259505,0.15988068798119187,-0.45743675169897724,0.030410158230795042,-0.05699420605351884,0.16553489388005285,0,70,255.0,255.0,255.0
513,25.650000000000002,-6.818614691349316,9.805592242216532,-25.443229944219986,-0.08848384712813093,0.1570070493228643,-0.4491178444255603,0.03173319074776938,-0.0579513402795814,0.16722139705662273,0,70,255.0,255.0,255.0
514,25.700000000000003,-6.822998665953739,9.813369756701398,-25.465476106985285,-0.08686411177781807,0.15408555395323362,-0.44071461199331474,0.03305622326474372,-0.058908474505643946,0.16890790023319263,0,70,255.0,255.0,255.0
515,25.75,-6.8273,9.821,-25.4873,-0.08517822480165663,0.15111620187230004,-0.43222705440224135,0.03437925578171863,-0.05986560873170643,0.17059440340976417,0,70,255.0,255.0,255.0
516,25.8,-6.831515775534698,9.828480912081138,-25.5086979042079,-0.08344956387309765,0.1481189613420142,-0.4236850037546299,0.034767181360639346,-0.06002401247972622,0.17108762249468948,0,70,255.0,255.0,255.0
517,25.85,-6.835644633115995,9.835811764131078,-25.52966808935956,-0.08170150666559264,0.14511380062432733,-0.41511829215277213,0.03515510693956007,-0.06018241622774601,0.17158084157961478,0,70,255.0,255.0,255.0
518,25.900000000000002,-6.839685602929942,9.842992160140449,-25.550209322407273,-0.07993405317914161,0.1421007197192395,-0.4065269195966682,0.03554303251848078,-0.0603408199757658,0.1720740606645401,0,70,255.0,255.0,255.0
519,25.950000000000003,-6.8436377151625924,9.850021704099879,-25.570320370303325,-0.07814720341374451,0.13907971862675067,-0.3979108860863179,0.0359309580974015,-0.060499223723785585,0.1725672797494654,0,70,255.0,255.0,255.0
520,26.0,-6.8475,9.8569,-25.59,-0.07634095736940152,0.13605079734686104,-0.38927019162172194,0.03631888367632263,-0.060657627471806475,0.173060498834392,0,70,255.0,255.0,255.0
521,26.05,-6.851272047070054,9.863626580645176,-25.60924710869901,-0.07454888155640192,0.13300968470372435,-0.380612651167911,0.03536414884366031,-0.06098687825365952,0.17324111931804165,0,70,255.0,255.0,255.0
522,26.1,-6.854955683768002,9.87020069409472,-25.62806111459972,-0.07280454248503544,0.129952109521495,-0.37194607968991755,0.03440941401099799,-0.06131612903551257,0.1734217398016913,0,70,255.0,255.0,255.0
523,26.150000000000002,-6.858553296930919,9.876621517221675,-25.646441566150934,-0.07110794015530209,0.126878071800173,-0.3632704771877416,0.033454679178335674,-0.06164537981736561,0.17360236028534093,0,70,255.0,255.0,255.0
524,26.200000000000003,-6.862067273395891,9.882888226899087,-25.664388011801428,-0.06945907456720184,0.12378757153975835,-0.3545858436613832,0.03249994434567335,-0.06197463059921866,0.17378298076899057,0,70,255.0,255.0,255.0
525,26.25,-6.8655,9.889,-25.6819,-0.0678579457207348,0.12068060874025124,-0.3458921791108429,0.03154520951301165,-0.06230388138107257,0.17396360125263932,0,70,255.0,255.0,255.0
526,26.3,-6.868852836185082,9.89495596533815,-25.698976060996067,-0.06624290990129131,0.11755429984308352,-0.33712839157369917,0.033056223264726944,-0.06274847450563495,0.17658790023310655,0,70,255.0,255.0,255.0
527,26.35,-6.872123031812003,9.900755059490038,-25.71561065224155,-0.06455232339426205,0.11440576128968766,-0.328233389087532,0.034567237016442244,-0.06319306763019733,0.1792121992135738,0,70,255.0,255.0,255.0
528,26.400000000000002,-6.875306809346382,9.90639617097285,-25.731797212989004,-0.06278618619964704,0.1112349930800637,-0.3192071716523415,0.03607825076815754,-0.06363766075475971,0.181836498194041,0,70,255.0,255.0,255.0
529,26.450000000000003,-6.878400391253841,9.911878188303772,-25.74752918249097,-0.06094449831744625,0.1080419952142116,-0.3100497392681276,0.03758926451987283,-0.06408225387932209,0.18446079717450822,0,70,255.0,255.0,255.0
530,26.5,-6.8814,9.9172,-25.7628,-0.059027259747659835,0.10482676769213162,-0.3007610919348911,0.03910027827158802,-0.06452684700388467,0.18708509615497437,0,70,255.0,255.0,255.0
531,26.55,-6.884303008189616,9.922360758002219,-25.777604647316718,-0.05710347883843476,0.10160511592394002,-0.2914337825372807,0.0378509580974141,-0.06433922372377711,0.18600727974943465,0,70,255.0,255.0,255.0
532,26.6,-6.887111388983989,9.927360667945127,-25.791944276434066,-0.05524216393791837,0.09839284531975381,-0.28216036395994737,0.03660163792324019,-0.06415160044366956,0.18492946334389493,0,70,255.0,255.0,255.0
533,26.650000000000002,-6.889828265683554,9.932200198886926,-25.805821581893053,-0.05344331504611068,0.09518995587957298,-0.27294083620289095,0.035352317749066275,-0.063963977163562,0.18385164693835523,0,70,255.0,255.0,255.0
534,26.700000000000003,-6.892456761588745,9.936879819885819,-25.819239258234692,-0.05170693216301169,0.09199644760339752,-0.2637751992661116,0.034102997574892366,-0.06377635388345446,0.1827738305328155,0,70,255.0,255.0,255.0
535,26.75,-6.895,9.9414,-25.8322,-0.05003301528862152,0.08881232049122768,-0.2546634531496098,0.032853677400718484,-0.06358873060334702,0.18169601412727676,0,70,255.0,255.0,255.0
536,26.8,-6.897459931056453,9.945761002652976,-25.844705349737055,-0.04835117474496181,0.0856252364611636,-0.24553647827720185,0.03441994434566925,-0.06389463059921473,0.1833829807690366,0,70,255.0,255.0,255.0
537,26.85,-6.899833812252042,9.949962268729454,-25.856752242022186,-0.046591020854054546,0.08242285743130612,-0.23632515507270588,0.03598621129062002,-0.06420053059508242,0.18506994741079646,0,70,255.0,255.0,255.0
538,26.900000000000002,-6.902117727919404,9.954003033479442,-25.86833645943879,-0.044752553615899755,0.07920518340165526,-0.22702948353612193,0.037552478235570785,-0.06450643059095013,0.18675691405255632,0,70,255.0,255.0,255.0
539,26.950000000000003,-6.904307762391178,9.957882532152954,-25.879453784570266,-0.04283577303049742,0.07597221437221101,-0.21764946366744997,0.03911874518052155,-0.06481233058681783,0.18844388069431614,0,70,255.0,255.0,255.0
540,27.0,-6.9064,9.9616,-25.8901,-0.040840679097847686,0.07272395034297363,-0.20818509546669073,0.0406850121254721,-0.0651182305826854,0.19013084733607588,0,70,255.0,255.0,255.0
541,27.05,-6.908391667584572,9.965154431385882,-25.900270753735068,-0.03883582218171457,0.06944593823142266,-0.19862830435392476,0.039509264519851164,-0.06600225387935181,0.19214079717455787,0,70,255.0,255.0,255.0
542,27.1,-6.910284562007843,9.968543857137062,-25.90996115547719,-0.036889752645862514,0.06612372495503836,-0.18897101574923467,0.03833351691423024,-0.06688627717601821,0.1941507470130399,0,70,255.0,255.0,255.0
543,27.150000000000002,-6.912081622638829,9.971766067195304,-25.91916618035179,-0.035002470490291496,0.06275731051382075,-0.1792132296526205,0.037157769308609305,-0.06777030047268462,0.19616069685152188,0,70,255.0,255.0,255.0
544,27.200000000000003,-6.913785788846543,9.974818851502363,-25.92788080348426,-0.03317397571500153,0.059346694907769795,-0.16935494606408222,0.03598202170298838,-0.06865432376935102,0.1981706466900039,0,70,255.0,255.0,255.0
545,27.25,-6.9154,9.9777,-25.9361,-0.03140426831999273,0.055891878136885786,-0.1593961649836205,0.03480627409736753,-0.06953834706601736,0.2001805965284873,0,70,255.0,255.0,255.0
546,27.3,-6.916926198605262,9.980407671803505,-25.94382043532269,-0.029633536528185896,0.052415010613148426,-0.14943830430708865,0.036022997574905,-0.06953635388347515,0.19813383053278058,0,70,255.0,255.0,255.0
547,27.35,-6.918362339716587,9.982941502722301,-25.95104553606904,-0.02780196856250218,0.04893824274853817,-0.13958278193034218,0.037239721052442464,-0.06953436070093293,0.1960870645370739,0,70,255.0,255.0,255.0
548,27.400000000000002,-6.919705381525281,9.985301497739345,-25.957780419154048,-0.025909564422941594,0.045461574543055036,-0.129829597853381,0.038456444529979934,-0.06953236751839072,0.19404029854136717,0,70,255.0,255.0,255.0
549,27.450000000000003,-6.92095228222265,9.987487661837593,-25.964030201492708,-0.023956324109504136,0.041985005996699,-0.12017875207620517,0.039673168007517405,-0.0695303743358485,0.19199353254566046,0,70,255.0,255.0,255.0
550,27.5,-6.9221,9.9895,-25.9698,-0.021942247622189947,0.03850853710947033,-0.11063024459881535,0.0408898914850547,-0.0695283811533064,0.18994676654995435,0,70,255.0,255.0,255.0
551,27.55,-6.923145937994381,9.9913380814001,-25.97509150497419,-0.0198940317055502,0.03500601931596837,-0.10097847841770889,0.041038745180533985,-0.07057233058677023,0.19612388069429812,0,70,255.0,255.0,255.0
552,27.6,-6.924089279125809,9.992999731973734,-25.97989270024665,-0.01783837310413649,0.0314513040507932,-0.09101785652938525,0.04118759887601326,-0.07161628002023407,0.2023009948386419,0,70,255.0,255.0,255.0
553,27.650000000000002,-6.924929651260047,9.994482341847318,-25.98418814303201,-0.015775271817948817,0.027844391313944856,-0.08074837893384443,0.041336452571492543,-0.0726602294536979,0.20847810898298563,0,70,255.0,255.0,255.0
554,27.700000000000003,-6.925666682262857,9.99578330114727,-25.987962390544915,-0.013704727846987176,0.024185281105423315,-0.07017004563108639,0.041485306266971826,-0.07370417888716174,0.2146552231273294,0,70,255.0,255.0,255.0
555,27.75,-6.9263,9.9969,-25.9912,-0.011626741191251724,0.020473973425228848,-0.059282856621111955,0.04163415996245107,-0.0747481283206255,0.22083233727167312,0,70,255.0,255.0,255.0
556,27.8,-6.926830049417219,9.99783200259609,-25.99389354478054,-0.009590336649615505,0.016840912122979498,-0.048567782022070426,0.039822021702996535,-0.07057432376934643,0.207770646689982,0,70,255.0,255.0,255.0
557,27.85,-6.927260543780178,9.998587569382757,-25.996067662944355,-0.007644539020952014,0.013416541048294105,-0.03850579195211346,0.038009883443542,-0.06640051921806736,0.1947089561082909,0,70,255.0,255.0,255.0
558,27.900000000000002,-6.927596013434529,9.999177134871378,-25.997755008717903,-0.005789348305261251,0.010200860201172668,-0.02909688641124106,0.03619774518408747,-0.062226714666788294,0.18164726552659977,0,70,255.0,255.0,255.0
559,27.950000000000003,-6.9278409887259205,9.999611133573334,-25.998988236327634,-0.004024764502543216,0.007193869581615188,-0.020341065399453226,0.03438560692463294,-0.058052910115509226,0.16858557494490864,0,70,255.0,255.0,255.0
560,28.0,-6.928,9.9999,-25.9998,-0.002350787612798024,0.004395569189621856,-0.012238328916750507,0.03257346866517853,-0.053879105564230444,0.1555238843632185,0,70,255.0,255.0,255.0
561,28.05,-6.9280802643367485,10.000057908215538,-26.00023351590364,-0.0009286216959809954,0.0020303321921190266,-0.005422393494027491,0.024313168007501808,-0.04073037433588137,0.11711353254569826,0,70,255.0,255.0,255.0
562,28.1,-6.92809974575348,10.000113990495235,-26.00037424797592,8.052918795219122e-05,0.0003225317560336604,-0.0005269756621805151,0.016052867349825084,-0.027581643107532302,0.07870318072817799,0,70,255.0,255.0,255.0
563,28.150000000000002,-6.928079095001835,10.000101118667166,-26.000318222096375,0.0006766650390015354,-0.0007278321186342425,0.0024479245787904173,0.00779256669214836,-0.014432911879183233,0.04029282891065772,0,70,255.0,255.0,255.0
564,28.200000000000003,-6.928038962833461,10.000052164559397,-26.000161464144554,0.0008597858571670384,-0.0011207594318846832,0.003502307228885313,-0.00046773396552836355,-0.0012841806508341602,0.0018824770931374635,0,70,255.0,255.0,255.0
565,28.25,-6.928,10.0,-26.0,0.0006298916424487313,-0.0008562501837177027,0.0026361722881042948,-0.008728034623204487,0.011864550577513972,-0.036527874724380086,0,70,255.0,255.0,255.0
566,28.3,-6.927978493235785,9.999970764541759,-25.999909991604895,0.00024882343354272186,-0.00033824089145858313,0.001041355998178457,-0.006514693733035673,0.008855821112850519,-0.027264776872652517,0,70,255.0,255.0,255.0
567,28.35,-6.927973273205904,9.999963668636301,-25.999888145151974,-2.1577730854845258e-05,2.933192756736163e-05,-9.030539916099543e-05,-0.004301352842866859,0.005847091648187065,-0.01800167902092495,0,70,255.0,255.0,255.0
